trial_type	onset	duration	key_response.corr
failed go	-6.1347999999999985	1	0.0
correct stop	-4.2120999999999995	1	1.0
correct go	-2.4616999999999933	1	1.0
correct go	-0.5447999999999951	1	1.0
correct go	1.2516000000000034	1	1.0
correct go	3.001400000000004	1	1.0
correct stop	4.769200000000005	1	1.0
correct go	6.833800000000004	1	1.0
correct go	8.581200000000003	1	1.0
correct go	10.417300000000004	1	1.0
correct go	12.246400000000001	1	1.0
correct stop	14.057500000000005	1	1.0
correct go	16.164200000000008	1	1.0
correct go	18.29350000000001	1	1.0
correct go	20.748000000000005	1	1.0
correct go	22.70920000000001	1	1.0
correct go	24.6241	1	1.0
correct go	26.8788	1	1.0
correct go	28.667	1	1.0
correct stop	30.5017	1	1.0
correct go	32.293000000000006	1	1.0
correct go	34.0437	1	1.0
correct go	36.3335	1	1.0
correct go	38.834500000000006	1	1.0
correct go	40.9144	1	1.0
correct go	43.16720000000001	1	1.0
failed stop	44.971900000000005	1	0.0
correct go	46.873900000000006	1	1.0
correct go	48.6679	1	1.0
correct go	50.460300000000004	1	1.0
correct stop	52.4768	1	1.0
correct go	54.7906	1	1.0
correct go	56.79090000000001	1	1.0
correct go	58.91810000000001	1	1.0
correct go	60.8759	1	1.0
correct stop	62.74730000000001	1	1.0
correct go	65.12480000000001	1	1.0
correct go	66.9616	1	1.0
correct go	68.8751	1	1.0
correct stop	70.6439	1	1.0
correct go	72.5001	1	1.0
correct go	74.5421	1	1.0
failed go	76.671	1	0.0
failed stop	79.05210000000001	1	0.0
correct go	80.8753	1	1.0
correct go	83.08550000000001	1	1.0
correct go	85.37509999999999	1	1.0
correct stop	87.5115	1	1.0
correct go	89.26630000000002	1	1.0
correct go	91.0028	1	1.0
correct stop	93.14650000000002	1	1.0
failed go	94.96570000000001	1	0.0
failed go	96.74589999999999	1	0.0
failed go	98.5845	1	0.0
correct go	100.2931	1	1.0
failed stop	102.10100000000001	1	0.0
correct go	103.8351	1	1.0
correct go	105.70909999999999	1	1.0
correct go	108.33470000000001	1	1.0
correct go	110.63100000000001	1	1.0
correct go	112.377	1	1.0
correct go	114.21490000000001	1	1.0
correct go	116.0493	1	1.0
correct go	117.796	1	1.0
correct go	119.54970000000002	1	1.0
correct go	121.29880000000001	1	1.0
correct go	123.1273	1	1.0
correct go	124.96070000000002	1	1.0
correct go	127.3387	1	1.0
correct go	129.08859999999999	1	1.0
correct go	130.8779	1	1.0
correct stop	132.79410000000001	1	1.0
correct go	134.58780000000002	1	1.0
correct go	136.34429999999998	1	1.0
correct go	138.17000000000002	1	1.0
correct go	139.9631	1	1.0
correct go	141.8802	1	1.0
correct go	143.67200000000003	1	1.0
failed stop	145.59750000000003	1	0.0
correct go	147.34109999999998	1	1.0
failed go	149.2126	1	0.0
correct go	150.9248	1	1.0
correct go	152.67560000000003	1	1.0
correct go	154.5075	1	1.0
correct stop	156.4395	1	1.0
correct go	158.25439999999998	1	1.0
correct go	160.00420000000003	1	1.0
correct go	161.80110000000002	1	1.0
correct go	163.80180000000001	1	1.0
correct go	165.5876	1	1.0
correct go	167.336	1	1.0
correct go	169.08780000000002	1	1.0
correct go	171.337	1	1.0
correct go	173.17149999999998	1	1.0
correct go	175.21480000000003	1	1.0
correct go	178.25639999999999	1	1.0
failed stop	180.33999999999997	1	0.0
correct go	182.38299999999998	1	1.0
correct go	184.42880000000002	1	1.0
correct go	186.25869999999998	1	1.0
correct go	188.58980000000003	1	1.0
correct go	190.58890000000002	1	1.0
correct go	192.5106	1	1.0
correct go	194.3025	1	1.0
failed stop	196.3143	1	0.0
correct go	198.08859999999999	1	1.0
correct go	200.0894	1	1.0
failed stop	202.25600000000003	1	0.0
correct go	204.1372	1	1.0
correct go	206.05020000000002	1	1.0
correct go	207.92539999999997	1	1.0
correct go	209.6723	1	1.0
correct go	211.6363	1	1.0
failed stop	213.39639999999997	1	0.0
correct go	215.17309999999998	1	1.0
correct go	217.1313	1	1.0
correct go	218.88799999999998	1	1.0
correct go	220.7226	1	1.0
correct go	222.5145	1	1.0
correct stop	224.52870000000001	1	1.0
correct go	227.1732	1	1.0
failed stop	229.0152	1	0.0
correct go	231.04879999999997	1	1.0
correct go	233.678	1	1.0
correct go	235.4278	1	1.0
correct stop	237.3206	1	1.0
correct go	239.14679999999998	1	1.0
correct go	241.42609999999996	1	1.0
correct go	243.2579	1	1.0
failed stop	245.44939999999997	1	0.0
correct go	247.2579	1	1.0
correct go	249.26169999999996	1	1.0
correct go	251.1327	1	1.0
correct stop	252.90589999999997	1	1.0
correct go	254.67489999999998	1	1.0
correct go	256.4293	1	1.0
correct go	258.3001	1	1.0
correct go	260.2016	1	1.0
correct stop	262.09159999999997	1	1.0
correct go	264.3064	1	1.0
correct go	266.0505	1	1.0
correct go	267.8469	1	1.0
correct go	269.6379	1	1.0
correct stop	271.50169999999997	1	1.0
correct go	274.50939999999997	1	1.0
correct go	276.3444	1	1.0
correct go	278.3026	1	1.0
correct go	280.0962	1	1.0
correct go	282.34299999999996	1	1.0
correct go	284.96799999999996	1	1.0
correct go	286.7202	1	1.0
correct go	288.693	1	1.0
correct go	290.8435	1	1.0
correct stop	292.6844	1	1.0
correct go	294.7181	1	1.0
correct go	296.51	1	1.0
correct go	298.2603	1	1.0
failed stop	300.0733	1	0.0
failed go	301.905	1	0.0
correct go	303.846	1	1.0
correct go	305.594	1	1.0
correct go	307.3858	1	1.0
correct go	309.304	1	1.0
correct go	311.1585	1	1.0
correct go	312.9265	1	1.0
failed go	315.3043	1	0.0
correct go	317.0562	1	1.0
correct go	318.8068	1	1.0
correct go	320.6357	1	1.0
failed stop	322.5326	1	0.0
correct go	324.3023	1	1.0
correct go	326.13599999999997	1	1.0
correct go	328.0108	1	1.0
correct go	329.7634	1	1.0
failed stop	331.567	1	0.0
correct go	333.38689999999997	1	1.0
correct go	336.0166	1	1.0
correct go	337.9301	1	1.0
correct go	339.847	1	1.0
correct go	341.7659	1	1.0
		1	
