trial_type,arrow_1,arrow_2,corrAns,jitter,run_end_fixation,trials.thisRepN,trials.thisTrialN,trials.thisN,trials.thisIndex,randomized TrialOrder,key_response.keys,key_response.corr,key_response.rt,trial_t.routineEndVal,ss_delay,iti_duration,SOA,participant,prac_or_scan,handedness,run,date,expName,psychopyVersion,frameRate,
go,sst_images/Left_Arrow.bmp,None,1,713,None,0,0,0,0,2,1,1,0.6959923949980293,go,0.05,0.713,1.713,001,Scanner,R,1,2019_Sep_06_1045,SST,3.0.7,60.036898076571056,
stop,sst_images/Right_Arrow.bmp,sst_images/Stop_Arrow.bmp,none,767,None,0,1,1,1,,None,1,,stop,0.1,0.767,1.767,001,Scanner,R,1,2019_Sep_06_1045,SST,3.0.7,60.036898076571056,
go,sst_images/Right_Arrow.bmp,None,2,928,None,0,2,2,2,,2,1,0.38673049100179924,go,0.1,0.928,1.928,001,Scanner,R,1,2019_Sep_06_1045,SST,3.0.7,60.036898076571056,
go,sst_images/Right_Arrow.bmp,None,2,735,None,0,3,3,3,,2,1,0.4543734319995565,go,0.1,0.735,1.7349999999999999,001,Scanner,R,1,2019_Sep_06_1045,SST,3.0.7,60.036898076571056,
go,sst_images/Left_Arrow.bmp,None,1,1380,None,0,4,4,4,,1,1,0.46799368299980415,go,0.1,1.38,2.38,001,Scanner,R,1,2019_Sep_06_1045,SST,3.0.7,60.036898076571056,
go,sst_images/Left_Arrow.bmp,None,1,769,None,0,5,5,5,,1,1,0.5210780400011572,go,0.1,0.769,1.7690000000000001,001,Scanner,R,1,2019_Sep_06_1045,SST,3.0.7,60.036898076571056,
stop,sst_images/Left_Arrow.bmp,sst_images/Stop_Arrow.bmp,none,884,None,0,6,6,6,,None,1,,stop,0.15000000000000002,0.884,1.8840000000000001,001,Scanner,R,1,2019_Sep_06_1045,SST,3.0.7,60.036898076571056,
go,sst_images/Right_Arrow.bmp,None,2,732,None,0,7,7,7,,2,1,0.43786190999890096,go,0.15000000000000002,0.732,1.732,001,Scanner,R,1,2019_Sep_06_1045,SST,3.0.7,60.036898076571056,
go,sst_images/Left_Arrow.bmp,None,1,847,None,0,8,8,8,,1,1,0.5036571630007529,go,0.15000000000000002,0.847,1.847,001,Scanner,R,1,2019_Sep_06_1045,SST,3.0.7,60.036898076571056,
stop,sst_images/Left_Arrow.bmp,sst_images/Stop_Arrow.bmp,none,1278,None,0,9,9,9,,None,1,,stop,0.2,1.278,2.2779999999999996,001,Scanner,R,1,2019_Sep_06_1045,SST,3.0.7,60.036898076571056,
go,sst_images/Right_Arrow.bmp,None,2,701,None,0,10,10,10,,2,1,0.4204268380017311,go,0.2,0.701,1.701,001,Scanner,R,1,2019_Sep_06_1045,SST,3.0.7,60.036898076571056,
go,sst_images/Right_Arrow.bmp,None,2,1480,None,0,11,11,11,,1,0,0.4065576860011788,go,0.2,1.48,2.48,001,Scanner,R,1,2019_Sep_06_1045,SST,3.0.7,60.036898076571056,
go,sst_images/Left_Arrow.bmp,None,1,935,None,0,12,12,12,,1,1,0.4471093829997699,go,0.2,0.935,1.935,001,Scanner,R,1,2019_Sep_06_1045,SST,3.0.7,60.036898076571056,
go,sst_images/Right_Arrow.bmp,None,2,1533,None,0,13,13,13,,2,1,0.5354711149993818,go,0.2,1.533,2.533,001,Scanner,R,1,2019_Sep_06_1045,SST,3.0.7,60.036898076571056,
go,sst_images/Left_Arrow.bmp,None,1,747,None,0,14,14,14,,1,1,0.4192977319980855,go,0.2,0.747,1.7469999999999999,001,Scanner,R,1,2019_Sep_06_1045,SST,3.0.7,60.036898076571056,
go,sst_images/Left_Arrow.bmp,None,1,1758,None,0,15,15,15,,1,1,0.5611542990009184,go,0.2,1.758,2.758,001,Scanner,R,1,2019_Sep_06_1045,SST,3.0.7,60.036898076571056,
go,sst_images/Left_Arrow.bmp,None,1,818,None,0,16,16,16,,1,1,0.5690291380014969,go,0.2,0.818,1.818,001,Scanner,R,1,2019_Sep_06_1045,SST,3.0.7,60.036898076571056,
go,sst_images/Right_Arrow.bmp,None,2,833,None,0,17,17,17,,2,1,0.4934112019982422,go,0.2,0.833,1.833,001,Scanner,R,1,2019_Sep_06_1045,SST,3.0.7,60.036898076571056,
stop,sst_images/Right_Arrow.bmp,sst_images/Stop_Arrow.bmp,none,1248,None,0,18,18,18,,None,1,,stop,0.25,1.248,2.2479999999999998,001,Scanner,R,1,2019_Sep_06_1045,SST,3.0.7,60.036898076571056,
go,sst_images/Left_Arrow.bmp,None,1,1081,None,0,19,19,19,,1,1,0.4615315080009168,go,0.25,1.081,2.081,001,Scanner,R,1,2019_Sep_06_1045,SST,3.0.7,60.036898076571056,
go,sst_images/Left_Arrow.bmp,None,1,872,None,0,20,20,20,,1,1,0.6032157020017621,go,0.25,0.872,1.8719999999999999,001,Scanner,R,1,2019_Sep_06_1045,SST,3.0.7,60.036898076571056,
go,sst_images/Right_Arrow.bmp,None,2,820,None,0,21,21,21,,2,1,0.4599664560009842,go,0.25,0.82,1.8199999999999998,001,Scanner,R,1,2019_Sep_06_1045,SST,3.0.7,60.036898076571056,
go,sst_images/Left_Arrow.bmp,None,1,702,None,0,22,22,22,,1,1,0.4123524610004097,go,0.25,0.702,1.702,001,Scanner,R,1,2019_Sep_06_1045,SST,3.0.7,60.036898076571056,
go,sst_images/Right_Arrow.bmp,None,2,833,None,0,23,23,23,,2,1,0.4120979819999775,go,0.25,0.833,1.833,001,Scanner,R,1,2019_Sep_06_1045,SST,3.0.7,60.036898076571056,
go,sst_images/Left_Arrow.bmp,None,1,795,None,0,24,24,24,,1,1,0.3695585069981462,go,0.25,0.795,1.795,001,Scanner,R,1,2019_Sep_06_1045,SST,3.0.7,60.036898076571056,
go,sst_images/Right_Arrow.bmp,None,2,846,None,0,25,25,25,,2,1,0.3777627630006464,go,0.25,0.846,1.846,001,Scanner,R,1,2019_Sep_06_1045,SST,3.0.7,60.036898076571056,
go,sst_images/Right_Arrow.bmp,None,2,707,None,0,26,26,26,,2,1,0.6265350169996964,go,0.25,0.707,1.7069999999999999,001,Scanner,R,1,2019_Sep_06_1045,SST,3.0.7,60.036898076571056,
go,sst_images/Left_Arrow.bmp,None,1,811,None,0,27,27,27,,1,1,0.6125560090004001,go,0.25,0.811,1.811,001,Scanner,R,1,2019_Sep_06_1045,SST,3.0.7,60.036898076571056,
stop,sst_images/Right_Arrow.bmp,sst_images/Stop_Arrow.bmp,none,1022,None,0,28,28,28,,2,0,0.43667448600172065,stop,0.2,1.022,2.1353255139982794,001,Scanner,R,1,2019_Sep_06_1045,SST,3.0.7,60.036898076571056,
go,sst_images/Right_Arrow.bmp,None,2,804,None,0,29,29,29,,2,1,0.42109952400278416,go,0.2,0.804,1.804,001,Scanner,R,1,2019_Sep_06_1045,SST,3.0.7,60.036898076571056,
go,sst_images/Right_Arrow.bmp,None,2,741,None,0,30,30,30,,2,1,0.4769763170006627,go,0.2,0.741,1.741,001,Scanner,R,1,2019_Sep_06_1045,SST,3.0.7,60.036898076571056,
go,sst_images/Left_Arrow.bmp,None,1,889,None,0,31,31,31,,1,1,0.374283794000803,go,0.2,0.889,1.889,001,Scanner,R,1,2019_Sep_06_1045,SST,3.0.7,60.036898076571056,
stop,sst_images/Left_Arrow.bmp,sst_images/Stop_Arrow.bmp,none,765,None,0,32,32,32,,None,1,,stop,0.25,0.765,1.765,001,Scanner,R,1,2019_Sep_06_1045,SST,3.0.7,60.036898076571056,
go,sst_images/Right_Arrow.bmp,None,2,1191,None,0,33,33,33,,2,1,0.4435471479991975,go,0.25,1.191,2.191,001,Scanner,R,1,2019_Sep_06_1045,SST,3.0.7,60.036898076571056,
go,sst_images/Left_Arrow.bmp,None,1,1158,None,0,34,34,34,,1,1,0.3767331449998892,go,0.25,1.158,2.158,001,Scanner,R,1,2019_Sep_06_1045,SST,3.0.7,60.036898076571056,
stop,sst_images/Right_Arrow.bmp,sst_images/Stop_Arrow.bmp,none,847,None,0,35,35,35,,2,0,0.40874216700103716,stop,0.2,0.847,1.9882578329989629,001,Scanner,R,1,2019_Sep_06_1045,SST,3.0.7,60.036898076571056,
go,sst_images/Left_Arrow.bmp,None,1,1121,None,0,36,36,36,,1,1,0.710327500000858,go,0.2,1.121,2.121,001,Scanner,R,1,2019_Sep_06_1045,SST,3.0.7,60.036898076571056,
stop,sst_images/Right_Arrow.bmp,sst_images/Stop_Arrow.bmp,none,1008,None,0,37,37,37,,2,0,0.45459676199971,stop,0.15000000000000002,1.008,2.05340323800029,001,Scanner,R,1,2019_Sep_06_1045,SST,3.0.7,60.036898076571056,
go,sst_images/Right_Arrow.bmp,None,2,728,None,0,38,38,38,,2,1,0.7272391710030206,go,0.15000000000000002,0.728,1.728,001,Scanner,R,1,2019_Sep_06_1045,SST,3.0.7,60.036898076571056,
go,sst_images/Right_Arrow.bmp,None,2,812,None,0,39,39,39,,2,1,0.6060778690007282,go,0.15000000000000002,0.812,1.812,001,Scanner,R,1,2019_Sep_06_1045,SST,3.0.7,60.036898076571056,
go,sst_images/Left_Arrow.bmp,None,1,836,None,0,40,40,40,,1,1,0.6426441309995425,go,0.15000000000000002,0.836,1.8359999999999999,001,Scanner,R,1,2019_Sep_06_1045,SST,3.0.7,60.036898076571056,
go,sst_images/Left_Arrow.bmp,None,1,894,None,0,41,41,41,,1,1,0.6930307309994532,go,0.15000000000000002,0.894,1.8940000000000001,001,Scanner,R,1,2019_Sep_06_1045,SST,3.0.7,60.036898076571056,
stop,sst_images/Left_Arrow.bmp,sst_images/Stop_Arrow.bmp,none,714,None,0,42,42,42,,None,1,,stop,0.2,0.714,1.7139999999999997,001,Scanner,R,1,2019_Sep_06_1045,SST,3.0.7,60.036898076571056,
go,sst_images/Right_Arrow.bmp,None,2,719,None,0,43,43,43,,2,1,0.41046222599834437,go,0.2,0.719,1.7189999999999999,001,Scanner,R,1,2019_Sep_06_1045,SST,3.0.7,60.036898076571056,
go,sst_images/Left_Arrow.bmp,None,1,707,None,0,44,44,44,,1,1,0.5594742660032352,go,0.2,0.707,1.7069999999999999,001,Scanner,R,1,2019_Sep_06_1045,SST,3.0.7,60.036898076571056,
go,sst_images/Left_Arrow.bmp,None,1,787,None,0,45,45,45,,1,1,0.6417960959988704,go,0.2,0.787,1.787,001,Scanner,R,1,2019_Sep_06_1045,SST,3.0.7,60.036898076571056,
stop,sst_images/Right_Arrow.bmp,sst_images/Stop_Arrow.bmp,none,767,None,0,46,46,46,,None,1,,stop,0.25,0.767,1.767,001,Scanner,R,1,2019_Sep_06_1045,SST,3.0.7,60.036898076571056,
go,sst_images/Right_Arrow.bmp,None,2,783,None,0,47,47,47,,2,1,0.4595018940017326,go,0.25,0.783,1.783,001,Scanner,R,1,2019_Sep_06_1045,SST,3.0.7,60.036898076571056,
go,sst_images/Right_Arrow.bmp,None,2,743,None,0,48,48,48,,2,1,0.4261475530001917,go,0.25,0.743,1.7429999999999999,001,Scanner,R,1,2019_Sep_06_1045,SST,3.0.7,60.036898076571056,
go,sst_images/Right_Arrow.bmp,None,2,752,None,0,49,49,49,,2,1,0.44184830900121597,go,0.25,0.752,1.752,001,Scanner,R,1,2019_Sep_06_1045,SST,3.0.7,60.036898076571056,
stop,sst_images/Left_Arrow.bmp,sst_images/Stop_Arrow.bmp,none,1219,None,0,50,50,50,,1,0,0.457373583001754,stop,0.2,1.219,2.311626416998246,001,Scanner,R,1,2019_Sep_06_1045,SST,3.0.7,60.036898076571056,
go,sst_images/Left_Arrow.bmp,None,1,1510,None,0,51,51,51,,1,1,0.658075507999456,go,0.2,1.51,2.51,001,Scanner,R,1,2019_Sep_06_1045,SST,3.0.7,60.036898076571056,
go,sst_images/Left_Arrow.bmp,None,1,1441,None,0,52,52,52,,1,1,0.7590977740001108,go,0.2,1.441,2.441,001,Scanner,R,1,2019_Sep_06_1045,SST,3.0.7,60.036898076571056,
go,sst_images/Left_Arrow.bmp,None,1,774,None,0,53,53,53,,1,1,0.5552344850002555,go,0.2,0.774,1.774,001,Scanner,R,1,2019_Sep_06_1045,SST,3.0.7,60.036898076571056,
go,sst_images/Right_Arrow.bmp,None,2,1033,None,0,54,54,54,,2,1,0.9718687770000543,go,0.2,1.033,2.033,001,Scanner,R,1,2019_Sep_06_1045,SST,3.0.7,60.036898076571056,
stop,sst_images/Right_Arrow.bmp,sst_images/Stop_Arrow.bmp,none,868,None,0,55,55,55,,None,1,,stop,0.25,0.868,1.8679999999999999,001,Scanner,R,1,2019_Sep_06_1045,SST,3.0.7,60.036898076571056,
go,sst_images/Right_Arrow.bmp,None,2,836,None,0,56,56,56,,2,1,0.5367588310000428,go,0.25,0.836,1.8359999999999999,001,Scanner,R,1,2019_Sep_06_1045,SST,3.0.7,60.036898076571056,
go,sst_images/Left_Arrow.bmp,None,1,713,None,0,57,57,57,,1,1,0.4678163839998888,go,0.25,0.713,1.713,001,Scanner,R,1,2019_Sep_06_1045,SST,3.0.7,60.036898076571056,
go,sst_images/Left_Arrow.bmp,None,1,707,None,0,58,58,58,,1,1,0.5240150850004284,go,0.25,0.707,1.7069999999999999,001,Scanner,R,1,2019_Sep_06_1045,SST,3.0.7,60.036898076571056,
go,sst_images/Left_Arrow.bmp,None,1,878,None,0,59,59,59,,1,1,0.687079575000098,go,0.25,0.878,1.8780000000000001,001,Scanner,R,1,2019_Sep_06_1045,SST,3.0.7,60.036898076571056,
go,sst_images/Right_Arrow.bmp,None,2,851,None,0,60,60,60,,2,1,0.6195282769986079,go,0.25,0.851,1.851,001,Scanner,R,1,2019_Sep_06_1045,SST,3.0.7,60.036898076571056,
go,sst_images/Left_Arrow.bmp,None,1,1008,None,0,61,61,61,,1,1,0.7214959019984235,go,0.25,1.008,2.008,001,Scanner,R,1,2019_Sep_06_1045,SST,3.0.7,60.036898076571056,
go,sst_images/Left_Arrow.bmp,None,1,1763,None,0,62,62,62,,1,1,0.5045170739977038,go,0.25,1.763,2.763,001,Scanner,R,1,2019_Sep_06_1045,SST,3.0.7,60.036898076571056,
go,sst_images/Right_Arrow.bmp,None,2,714,None,0,63,63,63,,2,1,0.5212794100007159,go,0.25,0.714,1.714,001,Scanner,R,1,2019_Sep_06_1045,SST,3.0.7,60.036898076571056,
go,sst_images/Right_Arrow.bmp,None,2,1009,None,0,64,64,64,,2,1,0.8509619230026146,go,0.25,1.009,2.009,001,Scanner,R,1,2019_Sep_06_1045,SST,3.0.7,60.036898076571056,
go,sst_images/Left_Arrow.bmp,None,1,1274,None,0,65,65,65,,1,1,0.5203632229968207,go,0.25,1.274,2.274,001,Scanner,R,1,2019_Sep_06_1045,SST,3.0.7,60.036898076571056,
stop,sst_images/Right_Arrow.bmp,sst_images/Stop_Arrow.bmp,none,787,None,0,66,66,66,,2,0,0.5040770800005703,stop,0.2,0.787,1.8329229199994297,001,Scanner,R,1,2019_Sep_06_1045,SST,3.0.7,60.036898076571056,
go,sst_images/Right_Arrow.bmp,None,2,1357,None,0,67,67,67,,2,1,0.47299114300039946,go,0.2,1.357,2.357,001,Scanner,R,1,2019_Sep_06_1045,SST,3.0.7,60.036898076571056,
go,sst_images/Left_Arrow.bmp,None,1,707,None,0,68,68,68,,1,1,0.5366827780017047,go,0.2,0.707,1.7069999999999999,001,Scanner,R,1,2019_Sep_06_1045,SST,3.0.7,60.036898076571056,
go,sst_images/Right_Arrow.bmp,None,2,735,None,0,69,69,69,,2,1,0.9566046869986167,go,0.2,0.735,1.7349999999999999,001,Scanner,R,1,2019_Sep_06_1045,SST,3.0.7,60.036898076571056,
stop,sst_images/Left_Arrow.bmp,sst_images/Stop_Arrow.bmp,none,707,None,0,70,70,70,,None,1,,stop,0.25,0.707,1.7069999999999999,001,Scanner,R,1,2019_Sep_06_1045,SST,3.0.7,60.036898076571056,
go,sst_images/Right_Arrow.bmp,None,2,796,None,0,71,71,71,,2,1,0.4888762640002824,go,0.25,0.796,1.796,001,Scanner,R,1,2019_Sep_06_1045,SST,3.0.7,60.036898076571056,
go,sst_images/Left_Arrow.bmp,None,1,798,None,0,72,72,72,,1,1,0.5396242799979518,go,0.25,0.798,1.798,001,Scanner,R,1,2019_Sep_06_1045,SST,3.0.7,60.036898076571056,
go,sst_images/Right_Arrow.bmp,None,2,705,None,0,73,73,73,,2,1,0.7061220270006743,go,0.25,0.705,1.705,001,Scanner,R,1,2019_Sep_06_1045,SST,3.0.7,60.036898076571056,
go,sst_images/Left_Arrow.bmp,None,1,802,None,0,74,74,74,,1,1,0.7056207429995993,go,0.25,0.802,1.802,001,Scanner,R,1,2019_Sep_06_1045,SST,3.0.7,60.036898076571056,
stop,sst_images/Right_Arrow.bmp,sst_images/Stop_Arrow.bmp,none,1871,None,0,75,75,75,,2,0,0.4557024210007512,stop,0.2,1.871,2.9652975789992486,001,Scanner,R,1,2019_Sep_06_1045,SST,3.0.7,60.036898076571056,
go,sst_images/Right_Arrow.bmp,None,2,912,None,0,76,76,76,,2,1,0.7689276089986379,go,0.2,0.912,1.912,001,Scanner,R,1,2019_Sep_06_1045,SST,3.0.7,60.036898076571056,
go,sst_images/Left_Arrow.bmp,None,1,752,None,0,77,77,77,,1,1,0.4044017230007739,go,0.2,0.752,1.752,001,Scanner,R,1,2019_Sep_06_1045,SST,3.0.7,60.036898076571056,
go,sst_images/Right_Arrow.bmp,None,2,868,None,0,78,78,78,,2,1,0.7059348709990445,go,0.2,0.868,1.8679999999999999,001,Scanner,R,1,2019_Sep_06_1045,SST,3.0.7,60.036898076571056,
stop,sst_images/Right_Arrow.bmp,sst_images/Stop_Arrow.bmp,none,719,None,0,79,79,79,,None,1,,stop,0.25,0.719,1.7189999999999999,001,Scanner,R,1,2019_Sep_06_1045,SST,3.0.7,60.036898076571056,
go,sst_images/Right_Arrow.bmp,None,2,789,None,0,80,80,80,,2,1,0.7377454990019032,go,0.25,0.789,1.7890000000000001,001,Scanner,R,1,2019_Sep_06_1045,SST,3.0.7,60.036898076571056,
go,sst_images/Left_Arrow.bmp,None,1,745,None,0,81,81,81,,1,1,0.5726091020005697,go,0.25,0.745,1.745,001,Scanner,R,1,2019_Sep_06_1045,SST,3.0.7,60.036898076571056,
go,sst_images/Left_Arrow.bmp,None,1,796,None,0,82,82,82,,1,1,0.8218748850013071,go,0.25,0.796,1.796,001,Scanner,R,1,2019_Sep_06_1045,SST,3.0.7,60.036898076571056,
go,sst_images/Right_Arrow.bmp,None,2,1025,None,0,83,83,83,,2,1,0.5364359820014215,go,0.25,1.025,2.025,001,Scanner,R,1,2019_Sep_06_1045,SST,3.0.7,60.036898076571056,
stop,sst_images/Left_Arrow.bmp,sst_images/Stop_Arrow.bmp,none,737,None,0,84,84,84,,None,1,,stop,0.3,0.737,1.7369999999999999,001,Scanner,R,1,2019_Sep_06_1045,SST,3.0.7,60.036898076571056,
go,sst_images/Right_Arrow.bmp,None,2,915,None,0,85,85,85,,2,1,0.5028445809984987,go,0.3,0.915,1.915,001,Scanner,R,1,2019_Sep_06_1045,SST,3.0.7,60.036898076571056,
go,sst_images/Right_Arrow.bmp,None,2,882,None,0,86,86,86,,2,1,0.6709801299984974,go,0.3,0.882,1.8820000000000001,001,Scanner,R,1,2019_Sep_06_1045,SST,3.0.7,60.036898076571056,
go,sst_images/Left_Arrow.bmp,None,1,704,None,0,87,87,87,,1,1,0.687022676000197,go,0.3,0.704,1.704,001,Scanner,R,1,2019_Sep_06_1045,SST,3.0.7,60.036898076571056,
stop,sst_images/Left_Arrow.bmp,sst_images/Stop_Arrow.bmp,none,707,None,0,88,88,88,,None,1,,stop,0.35,0.707,1.707,001,Scanner,R,1,2019_Sep_06_1045,SST,3.0.7,60.036898076571056,
go,sst_images/Left_Arrow.bmp,None,1,1357,None,0,89,89,89,,1,1,0.8213097219995689,go,0.35,1.357,2.357,001,Scanner,R,1,2019_Sep_06_1045,SST,3.0.7,60.036898076571056,
go,sst_images/Right_Arrow.bmp,None,2,740,None,0,90,90,90,,2,1,0.5207454429983045,go,0.35,0.74,1.74,001,Scanner,R,1,2019_Sep_06_1045,SST,3.0.7,60.036898076571056,
go,sst_images/Left_Arrow.bmp,None,1,1198,None,0,91,91,91,,1,1,0.738132238999242,go,0.35,1.198,2.198,001,Scanner,R,1,2019_Sep_06_1045,SST,3.0.7,60.036898076571056,
go,sst_images/Right_Arrow.bmp,None,2,1899,None,0,92,92,92,,2,1,0.5047349870001199,go,0.35,1.899,2.899,001,Scanner,R,1,2019_Sep_06_1045,SST,3.0.7,60.036898076571056,
go,sst_images/Left_Arrow.bmp,None,1,1871,None,0,93,93,93,,1,1,0.537310747000447,go,0.35,1.871,2.871,001,Scanner,R,1,2019_Sep_06_1045,SST,3.0.7,60.036898076571056,
go,sst_images/Right_Arrow.bmp,None,2,1095,None,0,94,94,94,,2,1,0.4706974779983284,go,0.35,1.095,2.0949999999999998,001,Scanner,R,1,2019_Sep_06_1045,SST,3.0.7,60.036898076571056,
go,sst_images/Left_Arrow.bmp,None,1,790,None,0,95,95,95,,1,1,0.45446502099730424,go,0.35,0.79,1.79,001,Scanner,R,1,2019_Sep_06_1045,SST,3.0.7,60.036898076571056,
go,sst_images/Left_Arrow.bmp,None,1,1633,None,0,96,96,96,,1,1,0.6541355970002769,go,0.35,1.633,2.633,001,Scanner,R,1,2019_Sep_06_1045,SST,3.0.7,60.036898076571056,
go,sst_images/Left_Arrow.bmp,None,1,791,None,0,97,97,97,,1,1,0.7854821290020482,go,0.35,0.791,1.791,001,Scanner,R,1,2019_Sep_06_1045,SST,3.0.7,60.036898076571056,
go,sst_images/Right_Arrow.bmp,None,2,750,None,0,98,98,98,,2,1,0.5552403420006158,go,0.35,0.75,1.75,001,Scanner,R,1,2019_Sep_06_1045,SST,3.0.7,60.036898076571056,
stop,sst_images/Right_Arrow.bmp,sst_images/Stop_Arrow.bmp,none,893,None,0,99,99,99,,2,0,0.5073715170001378,stop,0.3,0.893,2.035628482999862,001,Scanner,R,1,2019_Sep_06_1045,SST,3.0.7,60.036898076571056,
go,sst_images/Left_Arrow.bmp,None,1,748,None,0,100,100,100,,1,1,0.5197604400018463,go,0.3,0.748,1.748,001,Scanner,R,1,2019_Sep_06_1045,SST,3.0.7,60.036898076571056,
go,sst_images/Right_Arrow.bmp,None,2,1219,None,0,101,101,101,,2,1,0.7054311730025802,go,0.3,1.219,2.2190000000000003,001,Scanner,R,1,2019_Sep_06_1045,SST,3.0.7,60.036898076571056,
go,sst_images/Right_Arrow.bmp,None,2,938,None,0,102,102,102,,None,0,,go,0.3,0.938,1.938,001,Scanner,R,1,2019_Sep_06_1045,SST,3.0.7,60.036898076571056,
go,sst_images/Left_Arrow.bmp,None,1,706,None,0,103,103,103,,1,1,0.6542666040004406,go,0.3,0.706,1.706,001,Scanner,R,1,2019_Sep_06_1045,SST,3.0.7,60.036898076571056,
stop,sst_images/Left_Arrow.bmp,sst_images/Stop_Arrow.bmp,none,740,None,0,104,104,104,,1,0,0.5708664759986277,stop,0.25,0.74,1.7691335240013724,001,Scanner,R,1,2019_Sep_06_1045,SST,3.0.7,60.036898076571056,
go,sst_images/Right_Arrow.bmp,None,2,1313,None,0,105,105,105,,2,1,0.8185781380016124,go,0.25,1.313,2.3129999999999997,001,Scanner,R,1,2019_Sep_06_1045,SST,3.0.7,60.036898076571056,
go,sst_images/Right_Arrow.bmp,None,2,869,None,0,106,106,106,,2,1,0.8039844459999586,go,0.25,0.869,1.869,001,Scanner,R,1,2019_Sep_06_1045,SST,3.0.7,60.036898076571056,
go,sst_images/Left_Arrow.bmp,None,1,862,None,0,107,107,107,,1,1,0.5037545290033449,go,0.25,0.862,1.862,001,Scanner,R,1,2019_Sep_06_1045,SST,3.0.7,60.036898076571056,
stop,sst_images/Left_Arrow.bmp,sst_images/Stop_Arrow.bmp,none,894,None,0,108,108,108,,None,1,,stop,0.3,0.894,1.894,001,Scanner,R,1,2019_Sep_06_1045,SST,3.0.7,60.036898076571056,
go,sst_images/Left_Arrow.bmp,None,1,1016,None,0,109,109,109,,1,1,0.9210526999995636,go,0.3,1.016,2.016,001,Scanner,R,1,2019_Sep_06_1045,SST,3.0.7,60.036898076571056,
go,sst_images/Right_Arrow.bmp,None,2,929,None,0,110,110,110,,2,1,0.4874821980010893,go,0.3,0.929,1.929,001,Scanner,R,1,2019_Sep_06_1045,SST,3.0.7,60.036898076571056,
stop,sst_images/Right_Arrow.bmp,sst_images/Stop_Arrow.bmp,none,758,None,0,111,111,111,,2,0,0.43862627699854784,stop,0.25,0.758,1.9193737230014523,001,Scanner,R,1,2019_Sep_06_1045,SST,3.0.7,60.036898076571056,
go,sst_images/Right_Arrow.bmp,None,2,1181,None,0,112,112,112,,2,1,0.9698131270015438,go,0.25,1.181,2.181,001,Scanner,R,1,2019_Sep_06_1045,SST,3.0.7,60.036898076571056,
go,sst_images/Left_Arrow.bmp,None,1,747,None,0,113,113,113,,1,1,0.8861975359977805,go,0.25,0.747,1.7469999999999999,001,Scanner,R,1,2019_Sep_06_1045,SST,3.0.7,60.036898076571056,
go,sst_images/Right_Arrow.bmp,None,2,742,None,0,114,114,114,,2,1,0.9375543339992873,go,0.25,0.742,1.742,001,Scanner,R,1,2019_Sep_06_1045,SST,3.0.7,60.036898076571056,
stop,sst_images/Left_Arrow.bmp,sst_images/Stop_Arrow.bmp,none,813,None,0,115,115,115,,1,0,0.5183151769997494,stop,0.2,0.813,1.8446848230002506,001,Scanner,R,1,2019_Sep_06_1045,SST,3.0.7,60.036898076571056,
go,sst_images/Left_Arrow.bmp,None,1,702,None,0,116,116,116,,1,1,0.4856414499990933,go,0.2,0.702,1.702,001,Scanner,R,1,2019_Sep_06_1045,SST,3.0.7,60.036898076571056,
go,sst_images/Right_Arrow.bmp,None,2,922,None,0,117,117,117,,2,1,0.6025494639980025,go,0.2,0.922,1.9220000000000002,001,Scanner,R,1,2019_Sep_06_1045,SST,3.0.7,60.036898076571056,
go,sst_images/Left_Arrow.bmp,None,1,959,None,0,118,118,118,,1,1,0.9205760810000356,go,0.2,0.959,1.959,001,Scanner,R,1,2019_Sep_06_1045,SST,3.0.7,60.036898076571056,
stop,sst_images/Right_Arrow.bmp,sst_images/Stop_Arrow.bmp,none,758,None,0,119,119,119,,None,1,,stop,0.25,0.758,1.758,001,Scanner,R,1,2019_Sep_06_1045,SST,3.0.7,60.036898076571056,
go,sst_images/Right_Arrow.bmp,None,2,760,None,0,120,120,120,,2,1,0.7376784070002032,go,0.25,0.76,1.76,001,Scanner,R,1,2019_Sep_06_1045,SST,3.0.7,60.036898076571056,
go,sst_images/Left_Arrow.bmp,None,1,702,None,0,121,121,121,,1,1,0.4708354810027231,go,0.25,0.702,1.702,001,Scanner,R,1,2019_Sep_06_1045,SST,3.0.7,60.036898076571056,
go,sst_images/Right_Arrow.bmp,None,2,879,None,0,122,122,122,,2,1,0.5681279109994648,go,0.25,0.879,1.879,001,Scanner,R,1,2019_Sep_06_1045,SST,3.0.7,60.036898076571056,
go,sst_images/Left_Arrow.bmp,None,1,701,None,0,123,123,123,,1,1,0.5368435500022315,go,0.25,0.701,1.701,001,Scanner,R,1,2019_Sep_06_1045,SST,3.0.7,60.036898076571056,
go,sst_images/Right_Arrow.bmp,None,2,779,None,0,124,124,124,,2,1,0.6711051050006063,go,0.25,0.779,1.779,001,Scanner,R,1,2019_Sep_06_1045,SST,3.0.7,60.036898076571056,
go,sst_images/Left_Arrow.bmp,None,1,737,None,0,125,125,125,,1,1,0.5052841819997411,go,0.25,0.737,1.737,001,Scanner,R,1,2019_Sep_06_1045,SST,3.0.7,60.036898076571056,
go,sst_images/Right_Arrow.bmp,None,2,782,None,0,126,126,126,,2,1,0.7368946399983543,go,0.25,0.782,1.782,001,Scanner,R,1,2019_Sep_06_1045,SST,3.0.7,60.036898076571056,
go,sst_images/Right_Arrow.bmp,None,2,890,None,0,127,127,127,,2,1,0.5640204519986582,go,0.25,0.89,1.8900000000000001,001,Scanner,R,1,2019_Sep_06_1045,SST,3.0.7,60.036898076571056,
go,sst_images/Left_Arrow.bmp,None,1,707,None,0,128,128,128,,1,1,0.4545399430026009,go,0.25,0.707,1.7069999999999999,001,Scanner,R,1,2019_Sep_06_1045,SST,3.0.7,60.036898076571056,
go,sst_images/Left_Arrow.bmp,None,1,755,None,0,129,129,129,,1,1,0.43753514800118865,go,0.25,0.755,1.755,001,Scanner,R,1,2019_Sep_06_1045,SST,3.0.7,60.036898076571056,
go,sst_images/Left_Arrow.bmp,None,1,750,None,0,130,130,130,,1,1,0.6137894450002932,go,0.25,0.75,1.75,001,Scanner,R,1,2019_Sep_06_1045,SST,3.0.7,60.036898076571056,
go,sst_images/Right_Arrow.bmp,None,2,1732,None,0,131,131,131,,2,1,0.521402850998129,go,0.25,1.732,2.732,001,Scanner,R,1,2019_Sep_06_1045,SST,3.0.7,60.036898076571056,
go,sst_images/Left_Arrow.bmp,None,1,865,None,0,132,132,132,,1,1,0.5032580480001343,go,0.25,0.865,1.865,001,Scanner,R,1,2019_Sep_06_1045,SST,3.0.7,60.036898076571056,
go,sst_images/Left_Arrow.bmp,None,1,722,None,0,133,133,133,,1,1,0.47787548400083324,go,0.25,0.722,1.722,001,Scanner,R,1,2019_Sep_06_1045,SST,3.0.7,60.036898076571056,
stop,sst_images/Right_Arrow.bmp,sst_images/Stop_Arrow.bmp,none,798,None,0,134,134,134,,None,1,,stop,0.3,0.798,1.798,001,Scanner,R,1,2019_Sep_06_1045,SST,3.0.7,60.036898076571056,
go,sst_images/Left_Arrow.bmp,None,1,893,None,0,135,135,135,,1,1,0.6379015290003736,go,0.3,0.893,1.893,001,Scanner,R,1,2019_Sep_06_1045,SST,3.0.7,60.036898076571056,
go,sst_images/Right_Arrow.bmp,None,2,756,None,0,136,136,136,,None,0,,go,0.3,0.756,1.756,001,Scanner,R,1,2019_Sep_06_1045,SST,3.0.7,60.036898076571056,
go,sst_images/Left_Arrow.bmp,None,1,804,None,0,137,137,137,,1,1,0.5686154079994594,go,0.3,0.804,1.804,001,Scanner,R,1,2019_Sep_06_1045,SST,3.0.7,60.036898076571056,
go,sst_images/Left_Arrow.bmp,None,1,700,None,0,138,138,138,,1,1,0.462998917002551,go,0.3,0.7,1.7,001,Scanner,R,1,2019_Sep_06_1045,SST,3.0.7,60.036898076571056,
stop,sst_images/Left_Arrow.bmp,sst_images/Stop_Arrow.bmp,none,752,None,0,139,139,139,,None,1,,stop,0.35,0.752,1.752,001,Scanner,R,1,2019_Sep_06_1045,SST,3.0.7,60.036898076571056,
go,sst_images/Right_Arrow.bmp,None,2,727,None,0,140,140,140,,2,1,0.5212687319981342,go,0.35,0.727,1.7269999999999999,001,Scanner,R,1,2019_Sep_06_1045,SST,3.0.7,60.036898076571056,
go,sst_images/Right_Arrow.bmp,None,2,736,None,0,141,141,141,,2,1,0.571078151002439,go,0.35,0.736,1.736,001,Scanner,R,1,2019_Sep_06_1045,SST,3.0.7,60.036898076571056,
go,sst_images/Left_Arrow.bmp,None,1,787,None,0,142,142,142,,1,1,0.5367711569997482,go,0.35,0.787,1.787,001,Scanner,R,1,2019_Sep_06_1045,SST,3.0.7,60.036898076571056,
go,sst_images/Right_Arrow.bmp,None,2,758,None,0,143,143,143,,2,1,0.5021752749998996,go,0.35,0.758,1.758,001,Scanner,R,1,2019_Sep_06_1045,SST,3.0.7,60.036898076571056,
go,sst_images/Left_Arrow.bmp,None,1,765,None,0,144,144,144,,1,1,0.4600109050006722,go,0.35,0.765,1.7650000000000001,001,Scanner,R,1,2019_Sep_06_1045,SST,3.0.7,60.036898076571056,
go,sst_images/Left_Arrow.bmp,None,1,717,None,0,145,145,145,,1,1,0.5537106210031197,go,0.35,0.717,1.717,001,Scanner,R,1,2019_Sep_06_1045,SST,3.0.7,60.036898076571056,
go,sst_images/Right_Arrow.bmp,None,2,801,None,0,146,146,146,,2,1,0.49429203999898164,go,0.35,0.801,1.8010000000000002,001,Scanner,R,1,2019_Sep_06_1045,SST,3.0.7,60.036898076571056,
go,sst_images/Left_Arrow.bmp,None,1,884,None,0,147,147,147,,1,1,0.5447368460008875,go,0.35,0.884,1.884,001,Scanner,R,1,2019_Sep_06_1045,SST,3.0.7,60.036898076571056,
go,sst_images/Right_Arrow.bmp,None,2,754,None,0,148,148,148,,2,1,0.5024145889983629,go,0.35,0.754,1.754,001,Scanner,R,1,2019_Sep_06_1045,SST,3.0.7,60.036898076571056,
go,sst_images/Left_Arrow.bmp,None,1,927,None,0,149,149,149,,1,1,0.4615679499984253,go,0.35,0.927,1.927,001,Scanner,R,1,2019_Sep_06_1045,SST,3.0.7,60.036898076571056,
go,sst_images/Right_Arrow.bmp,None,2,794,None,0,150,150,150,,2,1,0.6957483189980849,go,0.35,0.794,1.794,001,Scanner,R,1,2019_Sep_06_1045,SST,3.0.7,60.036898076571056,
go,sst_images/Right_Arrow.bmp,None,2,1381,None,0,151,151,151,,2,1,0.587959440999839,go,0.35,1.381,2.3810000000000002,001,Scanner,R,1,2019_Sep_06_1045,SST,3.0.7,60.036898076571056,
go,sst_images/Left_Arrow.bmp,None,1,1259,None,0,152,152,152,,1,1,0.5192694229990593,go,0.35,1.259,2.259,001,Scanner,R,1,2019_Sep_06_1045,SST,3.0.7,60.036898076571056,
go,sst_images/Right_Arrow.bmp,None,2,717,None,0,153,153,153,,2,1,0.9584655489998113,go,0.35,0.717,1.717,001,Scanner,R,1,2019_Sep_06_1045,SST,3.0.7,60.036898076571056,
go,sst_images/Left_Arrow.bmp,None,1,1278,None,0,154,154,154,,1,1,0.4215228899993235,go,0.35,1.278,2.278,001,Scanner,R,1,2019_Sep_06_1045,SST,3.0.7,60.036898076571056,
go,sst_images/Right_Arrow.bmp,None,2,1066,None,0,155,155,155,,2,1,0.5440345239985618,go,0.35,1.066,2.066,001,Scanner,R,1,2019_Sep_06_1045,SST,3.0.7,60.036898076571056,
stop,sst_images/Left_Arrow.bmp,sst_images/Stop_Arrow.bmp,none,742,None,0,156,156,156,,1,0,0.6062177319981856,stop,0.3,0.742,1.7857822680018145,001,Scanner,R,1,2019_Sep_06_1045,SST,3.0.7,60.036898076571056,
go,sst_images/Left_Arrow.bmp,None,1,752,None,0,157,157,157,,1,1,0.49520314700203016,go,0.3,0.752,1.752,001,Scanner,R,1,2019_Sep_06_1045,SST,3.0.7,60.036898076571056,
go,sst_images/Right_Arrow.bmp,None,2,715,None,0,158,158,158,,2,1,0.4771037909995357,go,0.3,0.715,1.7149999999999999,001,Scanner,R,1,2019_Sep_06_1045,SST,3.0.7,60.036898076571056,
go,sst_images/Left_Arrow.bmp,None,1,893,None,0,159,159,159,,1,1,0.47108737399685197,go,0.3,0.893,1.893,001,Scanner,R,1,2019_Sep_06_1045,SST,3.0.7,60.036898076571056,
go,sst_images/Left_Arrow.bmp,None,1,998,None,0,160,160,160,,1,1,0.46898575099839945,go,0.3,0.998,1.998,001,Scanner,R,1,2019_Sep_06_1045,SST,3.0.7,60.036898076571056,
stop,sst_images/Left_Arrow.bmp,sst_images/Stop_Arrow.bmp,none,745,None,0,161,161,161,,1,0,0.4702942490002897,stop,0.25,0.745,1.8747057509997105,001,Scanner,R,1,2019_Sep_06_1045,SST,3.0.7,60.036898076571056,
go,sst_images/Right_Arrow.bmp,None,2,1453,None,0,162,162,162,,None,0,,go,0.25,1.453,2.4530000000000003,001,Scanner,R,1,2019_Sep_06_1045,SST,3.0.7,60.036898076571056,
go,sst_images/Left_Arrow.bmp,None,1,847,None,0,163,163,163,,1,1,0.393070556998282,go,0.25,0.847,1.847,001,Scanner,R,1,2019_Sep_06_1045,SST,3.0.7,60.036898076571056,
go,sst_images/Right_Arrow.bmp,None,2,1248,None,0,164,164,164,,2,1,0.4444647159980377,go,0.25,1.248,2.248,001,Scanner,R,1,2019_Sep_06_1045,SST,3.0.7,60.036898076571056,
go,sst_images/Right_Arrow.bmp,None,2,829,None,0,165,165,165,,2,1,0.5592225319996942,go,0.25,0.829,1.829,001,Scanner,R,1,2019_Sep_06_1045,SST,3.0.7,60.036898076571056,
go,sst_images/Right_Arrow.bmp,None,2,1113,None,0,166,166,166,,2,1,0.5199844599992502,go,0.25,1.113,2.113,001,Scanner,R,1,2019_Sep_06_1045,SST,3.0.7,60.036898076571056,
go,sst_images/Left_Arrow.bmp,None,1,1154,None,0,167,167,167,,1,1,0.6583604579973326,go,0.25,1.154,2.154,001,Scanner,R,1,2019_Sep_06_1045,SST,3.0.7,60.036898076571056,
go,sst_images/Right_Arrow.bmp,None,2,928,None,0,168,168,168,,2,1,0.5875919509999221,go,0.25,0.928,1.928,001,Scanner,R,1,2019_Sep_06_1045,SST,3.0.7,60.036898076571056,
go,sst_images/Right_Arrow.bmp,None,2,988,None,0,169,169,169,,2,1,0.44404390400086413,go,0.25,0.988,1.988,001,Scanner,R,1,2019_Sep_06_1045,SST,3.0.7,60.036898076571056,
go,sst_images/Left_Arrow.bmp,None,1,813,None,0,170,170,170,,1,1,0.44392998200055445,go,0.25,0.813,1.813,001,Scanner,R,1,2019_Sep_06_1045,SST,3.0.7,60.036898076571056,
stop,sst_images/Right_Arrow.bmp,sst_images/Stop_Arrow.bmp,none,783,None,0,171,171,171,,None,1,,stop,0.3,0.783,1.7830000000000001,001,Scanner,R,1,2019_Sep_06_1045,SST,3.0.7,60.036898076571056,
go,sst_images/Right_Arrow.bmp,None,2,931,None,0,172,172,172,,2,1,0.45981837900035316,go,0.3,0.931,1.931,001,Scanner,R,1,2019_Sep_06_1045,SST,3.0.7,60.036898076571056,
go,sst_images/Right_Arrow.bmp,None,2,946,None,0,173,173,173,,2,1,0.5245395589990949,go,0.3,0.946,1.946,001,Scanner,R,1,2019_Sep_06_1045,SST,3.0.7,60.036898076571056,
go,sst_images/Right_Arrow.bmp,None,2,800,None,0,174,174,174,,2,1,0.5753610230021877,go,0.3,0.8,1.8,001,Scanner,R,1,2019_Sep_06_1045,SST,3.0.7,60.036898076571056,
go,sst_images/Left_Arrow.bmp,None,1,962,None,0,175,175,175,,1,1,0.7752114459981385,go,0.3,0.962,1.962,001,Scanner,R,1,2019_Sep_06_1045,SST,3.0.7,60.036898076571056,
go,sst_images/Right_Arrow.bmp,None,2,740,None,0,176,176,176,,2,1,0.44265512200217927,go,0.3,0.74,1.74,001,Scanner,R,1,2019_Sep_06_1045,SST,3.0.7,60.036898076571056,
go,sst_images/Left_Arrow.bmp,None,1,758,None,0,177,177,177,,1,1,0.4755382949988416,go,0.3,0.758,1.758,001,Scanner,R,1,2019_Sep_06_1045,SST,3.0.7,60.036898076571056,
stop,sst_images/Left_Arrow.bmp,sst_images/Stop_Arrow.bmp,none,798,None,0,178,178,178,,1,0,0.5892170799997984,stop,0.25,0.798,1.8087829200002017,001,Scanner,R,1,2019_Sep_06_1045,SST,3.0.7,60.036898076571056,
go,sst_images/Right_Arrow.bmp,None,2,737,2661.0,0,179,179,179,,2,1,0.8100889200031816,go,0.25,0.737,1.737,001,Scanner,R,1,2019_Sep_06_1045,SST,3.0.7,60.036898076571056,
