trial_type,arrow_1,arrow_2,corrAns,jitter,run_end_fixation,trials.thisRepN,trials.thisTrialN,trials.thisN,trials.thisIndex,randomized TrialOrder,key_response.keys,key_response.corr,trial_t.routineEndVal,ss_delay,iti_duration,SOA,key_response.rt,participant,prac_or_scan,handedness,run,date,expName,psychopyVersion,frameRate,
go,sst_images/Left_Arrow.bmp,None,1,732,None,0,0,0,0,1,None,0,go,0.05,0.732,1.732,,002,Scanner,R,1,2019_Sep_05_1057,SST,3.0.7,60.06433346601879,
go,sst_images/Right_Arrow.bmp,None,2,709,None,0,1,1,1,,2,1,go,0.05,0.709,1.709,0.5456811269996251,002,Scanner,R,1,2019_Sep_05_1057,SST,3.0.7,60.06433346601879,
stop,sst_images/Right_Arrow.bmp,sst_images/Stop_Arrow.bmp,none,832,None,0,2,2,2,,None,1,stop,0.1,0.832,1.8319999999999999,,002,Scanner,R,1,2019_Sep_05_1057,SST,3.0.7,60.06433346601879,
go,sst_images/Right_Arrow.bmp,None,2,812,None,0,3,3,3,,2,1,go,0.1,0.812,1.812,0.5082614530001592,002,Scanner,R,1,2019_Sep_05_1057,SST,3.0.7,60.06433346601879,
go,sst_images/Left_Arrow.bmp,None,1,916,None,0,4,4,4,,1,1,go,0.1,0.916,1.916,0.5097707920012908,002,Scanner,R,1,2019_Sep_05_1057,SST,3.0.7,60.06433346601879,
stop,sst_images/Left_Arrow.bmp,sst_images/Stop_Arrow.bmp,none,817,None,0,5,5,5,,None,1,stop,0.15000000000000002,0.817,1.817,,002,Scanner,R,1,2019_Sep_05_1057,SST,3.0.7,60.06433346601879,
go,sst_images/Left_Arrow.bmp,None,1,1153,None,0,6,6,6,,None,0,go,0.15000000000000002,1.153,2.153,,002,Scanner,R,1,2019_Sep_05_1057,SST,3.0.7,60.06433346601879,
go,sst_images/Right_Arrow.bmp,None,2,1097,None,0,7,7,7,,None,0,go,0.15000000000000002,1.097,2.097,,002,Scanner,R,1,2019_Sep_05_1057,SST,3.0.7,60.06433346601879,
go,sst_images/Left_Arrow.bmp,None,1,771,None,0,8,8,8,,1,1,go,0.15000000000000002,0.771,1.771,0.47403608199965674,002,Scanner,R,1,2019_Sep_05_1057,SST,3.0.7,60.06433346601879,
go,sst_images/Right_Arrow.bmp,None,2,768,None,0,9,9,9,,2,1,go,0.15000000000000002,0.768,1.768,0.4908682850000332,002,Scanner,R,1,2019_Sep_05_1057,SST,3.0.7,60.06433346601879,
stop,sst_images/Left_Arrow.bmp,sst_images/Stop_Arrow.bmp,none,709,None,0,10,10,10,,1,0,stop,0.10000000000000002,0.709,1.6810247920005932,0.47797520799940685,002,Scanner,R,1,2019_Sep_05_1057,SST,3.0.7,60.06433346601879,
go,sst_images/Right_Arrow.bmp,None,2,861,None,0,11,11,11,,2,1,go,0.10000000000000002,0.861,1.861,0.4932282869995106,002,Scanner,R,1,2019_Sep_05_1057,SST,3.0.7,60.06433346601879,
go,sst_images/Left_Arrow.bmp,None,1,834,None,0,12,12,12,,1,1,go,0.10000000000000002,0.834,1.834,0.6099662939996051,002,Scanner,R,1,2019_Sep_05_1057,SST,3.0.7,60.06433346601879,
go,sst_images/Right_Arrow.bmp,None,2,830,None,0,13,13,13,,2,1,go,0.10000000000000002,0.83,1.83,0.5911527369989926,002,Scanner,R,1,2019_Sep_05_1057,SST,3.0.7,60.06433346601879,
go,sst_images/Left_Arrow.bmp,None,1,1202,None,0,14,14,14,,1,1,go,0.10000000000000002,1.202,2.202,0.9421807359995,002,Scanner,R,1,2019_Sep_05_1057,SST,3.0.7,60.06433346601879,
stop,sst_images/Right_Arrow.bmp,sst_images/Stop_Arrow.bmp,none,929,None,0,15,15,15,,None,1,stop,0.15000000000000002,0.929,1.929,,002,Scanner,R,1,2019_Sep_05_1057,SST,3.0.7,60.06433346601879,
go,sst_images/Left_Arrow.bmp,None,1,705,None,0,16,16,16,,None,0,go,0.15000000000000002,0.705,1.705,,002,Scanner,R,1,2019_Sep_05_1057,SST,3.0.7,60.06433346601879,
go,sst_images/Left_Arrow.bmp,None,1,953,None,0,17,17,17,,1,1,go,0.15000000000000002,0.953,1.9529999999999998,0.45905750099882425,002,Scanner,R,1,2019_Sep_05_1057,SST,3.0.7,60.06433346601879,
go,sst_images/Right_Arrow.bmp,None,2,795,None,0,18,18,18,,2,1,go,0.15000000000000002,0.795,1.795,0.43879494199973124,002,Scanner,R,1,2019_Sep_05_1057,SST,3.0.7,60.06433346601879,
go,sst_images/Left_Arrow.bmp,None,1,910,None,0,19,19,19,,1,1,go,0.15000000000000002,0.91,1.9100000000000001,0.4413770810006099,002,Scanner,R,1,2019_Sep_05_1057,SST,3.0.7,60.06433346601879,
go,sst_images/Left_Arrow.bmp,None,1,975,None,0,20,20,20,,1,1,go,0.15000000000000002,0.975,1.975,0.40840237400152546,002,Scanner,R,1,2019_Sep_05_1057,SST,3.0.7,60.06433346601879,
stop,sst_images/Right_Arrow.bmp,sst_images/Stop_Arrow.bmp,none,708,None,0,21,21,21,,2,0,stop,0.10000000000000002,0.708,1.7027755379991578,0.4552244620008423,002,Scanner,R,1,2019_Sep_05_1057,SST,3.0.7,60.06433346601879,
go,sst_images/Right_Arrow.bmp,None,2,838,None,0,22,22,22,,2,1,go,0.10000000000000002,0.838,1.838,0.9534052460003295,002,Scanner,R,1,2019_Sep_05_1057,SST,3.0.7,60.06433346601879,
go,sst_images/Left_Arrow.bmp,None,1,794,None,0,23,23,23,,None,0,go,0.10000000000000002,0.794,1.794,,002,Scanner,R,1,2019_Sep_05_1057,SST,3.0.7,60.06433346601879,
go,sst_images/Right_Arrow.bmp,None,2,835,None,0,24,24,24,,None,0,go,0.10000000000000002,0.835,1.835,,002,Scanner,R,1,2019_Sep_05_1057,SST,3.0.7,60.06433346601879,
go,sst_images/Left_Arrow.bmp,None,1,726,None,0,25,25,25,,None,0,go,0.10000000000000002,0.726,1.726,,002,Scanner,R,1,2019_Sep_05_1057,SST,3.0.7,60.06433346601879,
go,sst_images/Right_Arrow.bmp,None,2,1514,None,0,26,26,26,,None,0,go,0.10000000000000002,1.514,2.5140000000000002,,002,Scanner,R,1,2019_Sep_05_1057,SST,3.0.7,60.06433346601879,
go,sst_images/Right_Arrow.bmp,None,2,1028,None,0,27,27,27,,2,1,go,0.10000000000000002,1.028,2.028,0.3597058670002298,002,Scanner,R,1,2019_Sep_05_1057,SST,3.0.7,60.06433346601879,
go,sst_images/Left_Arrow.bmp,None,1,849,None,0,28,28,28,,1,1,go,0.10000000000000002,0.849,1.849,0.48902628699943307,002,Scanner,R,1,2019_Sep_05_1057,SST,3.0.7,60.06433346601879,
go,sst_images/Right_Arrow.bmp,None,2,807,None,0,29,29,29,,2,1,go,0.10000000000000002,0.807,1.807,0.4187902550002036,002,Scanner,R,1,2019_Sep_05_1057,SST,3.0.7,60.06433346601879,
stop,sst_images/Left_Arrow.bmp,sst_images/Stop_Arrow.bmp,none,870,None,0,30,30,30,,None,1,stop,0.15000000000000002,0.87,1.87,,002,Scanner,R,1,2019_Sep_05_1057,SST,3.0.7,60.06433346601879,
go,sst_images/Right_Arrow.bmp,None,2,826,None,0,31,31,31,,2,1,go,0.15000000000000002,0.826,1.826,0.46939862799990806,002,Scanner,R,1,2019_Sep_05_1057,SST,3.0.7,60.06433346601879,
go,sst_images/Left_Arrow.bmp,None,1,737,None,0,32,32,32,,1,1,go,0.15000000000000002,0.737,1.737,0.8862590980006644,002,Scanner,R,1,2019_Sep_05_1057,SST,3.0.7,60.06433346601879,
go,sst_images/Right_Arrow.bmp,None,2,853,None,0,33,33,33,,2,1,go,0.15000000000000002,0.853,1.853,0.5690816490005091,002,Scanner,R,1,2019_Sep_05_1057,SST,3.0.7,60.06433346601879,
go,sst_images/Left_Arrow.bmp,None,1,740,None,0,34,34,34,,None,0,go,0.15000000000000002,0.74,1.74,,002,Scanner,R,1,2019_Sep_05_1057,SST,3.0.7,60.06433346601879,
go,sst_images/Left_Arrow.bmp,None,1,835,None,0,35,35,35,,None,0,go,0.15000000000000002,0.835,1.835,,002,Scanner,R,1,2019_Sep_05_1057,SST,3.0.7,60.06433346601879,
go,sst_images/Right_Arrow.bmp,None,2,848,None,0,36,36,36,,None,0,go,0.15000000000000002,0.848,1.8479999999999999,,002,Scanner,R,1,2019_Sep_05_1057,SST,3.0.7,60.06433346601879,
go,sst_images/Right_Arrow.bmp,None,2,983,None,0,37,37,37,,None,0,go,0.15000000000000002,0.983,1.983,,002,Scanner,R,1,2019_Sep_05_1057,SST,3.0.7,60.06433346601879,
go,sst_images/Left_Arrow.bmp,None,1,725,None,0,38,38,38,,None,0,go,0.15000000000000002,0.725,1.725,,002,Scanner,R,1,2019_Sep_05_1057,SST,3.0.7,60.06433346601879,
go,sst_images/Left_Arrow.bmp,None,1,717,None,0,39,39,39,,None,0,go,0.15000000000000002,0.717,1.717,,002,Scanner,R,1,2019_Sep_05_1057,SST,3.0.7,60.06433346601879,
go,sst_images/Right_Arrow.bmp,None,2,701,None,0,40,40,40,,None,0,go,0.15000000000000002,0.701,1.701,,002,Scanner,R,1,2019_Sep_05_1057,SST,3.0.7,60.06433346601879,
stop,sst_images/Right_Arrow.bmp,sst_images/Stop_Arrow.bmp,none,1646,None,0,41,41,41,,None,1,stop,0.2,1.646,2.6459999999999995,,002,Scanner,R,1,2019_Sep_05_1057,SST,3.0.7,60.06433346601879,
go,sst_images/Left_Arrow.bmp,None,1,736,None,0,42,42,42,,1,1,go,0.2,0.736,1.736,0.3866439799985528,002,Scanner,R,1,2019_Sep_05_1057,SST,3.0.7,60.06433346601879,
go,sst_images/Left_Arrow.bmp,None,1,855,None,0,43,43,43,,1,1,go,0.2,0.855,1.855,0.4193826099999569,002,Scanner,R,1,2019_Sep_05_1057,SST,3.0.7,60.06433346601879,
go,sst_images/Right_Arrow.bmp,None,2,903,None,0,44,44,44,,2,1,go,0.2,0.903,1.903,0.4546054760012339,002,Scanner,R,1,2019_Sep_05_1057,SST,3.0.7,60.06433346601879,
go,sst_images/Right_Arrow.bmp,None,2,802,None,0,45,45,45,,2,1,go,0.2,0.802,1.802,0.3384928020004736,002,Scanner,R,1,2019_Sep_05_1057,SST,3.0.7,60.06433346601879,
stop,sst_images/Right_Arrow.bmp,sst_images/Stop_Arrow.bmp,none,768,None,0,46,46,46,,2,0,stop,0.15000000000000002,0.768,1.8780721980001254,0.38992780199987465,002,Scanner,R,1,2019_Sep_05_1057,SST,3.0.7,60.06433346601879,
go,sst_images/Right_Arrow.bmp,None,2,779,None,0,47,47,47,,2,1,go,0.15000000000000002,0.779,1.779,0.4219850919998862,002,Scanner,R,1,2019_Sep_05_1057,SST,3.0.7,60.06433346601879,
go,sst_images/Left_Arrow.bmp,None,1,703,None,0,48,48,48,,1,1,go,0.15000000000000002,0.703,1.7029999999999998,0.4352688599992689,002,Scanner,R,1,2019_Sep_05_1057,SST,3.0.7,60.06433346601879,
go,sst_images/Left_Arrow.bmp,None,1,941,None,0,49,49,49,,1,1,go,0.15000000000000002,0.941,1.9409999999999998,0.37168577699958405,002,Scanner,R,1,2019_Sep_05_1057,SST,3.0.7,60.06433346601879,
go,sst_images/Left_Arrow.bmp,None,1,779,None,0,50,50,50,,1,1,go,0.15000000000000002,0.779,1.779,0.3361334319997695,002,Scanner,R,1,2019_Sep_05_1057,SST,3.0.7,60.06433346601879,
stop,sst_images/Left_Arrow.bmp,sst_images/Stop_Arrow.bmp,none,902,None,0,51,51,51,,1,0,stop,0.10000000000000002,0.902,2.0142455199994873,0.33775448000051256,002,Scanner,R,1,2019_Sep_05_1057,SST,3.0.7,60.06433346601879,
go,sst_images/Right_Arrow.bmp,None,2,948,None,0,52,52,52,,2,1,go,0.10000000000000002,0.948,1.948,0.3719378900004813,002,Scanner,R,1,2019_Sep_05_1057,SST,3.0.7,60.06433346601879,
go,sst_images/Right_Arrow.bmp,None,2,706,None,0,53,53,53,,2,1,go,0.10000000000000002,0.706,1.706,0.33427871499952744,002,Scanner,R,1,2019_Sep_05_1057,SST,3.0.7,60.06433346601879,
stop,sst_images/Right_Arrow.bmp,sst_images/Stop_Arrow.bmp,none,730,None,0,54,54,54,,None,1,stop,0.15000000000000002,0.73,1.7300000000000002,,002,Scanner,R,1,2019_Sep_05_1057,SST,3.0.7,60.06433346601879,
go,sst_images/Left_Arrow.bmp,None,1,883,None,0,55,55,55,,1,1,go,0.15000000000000002,0.883,1.883,0.5002961190002679,002,Scanner,R,1,2019_Sep_05_1057,SST,3.0.7,60.06433346601879,
go,sst_images/Left_Arrow.bmp,None,1,951,None,0,56,56,56,,1,1,go,0.15000000000000002,0.951,1.951,0.3696111919998657,002,Scanner,R,1,2019_Sep_05_1057,SST,3.0.7,60.06433346601879,
go,sst_images/Left_Arrow.bmp,None,1,749,None,0,57,57,57,,1,1,go,0.15000000000000002,0.749,1.749,0.3551704540004721,002,Scanner,R,1,2019_Sep_05_1057,SST,3.0.7,60.06433346601879,
go,sst_images/Right_Arrow.bmp,None,2,722,None,0,58,58,58,,2,1,go,0.15000000000000002,0.722,1.722,0.4549923279992072,002,Scanner,R,1,2019_Sep_05_1057,SST,3.0.7,60.06433346601879,
stop,sst_images/Left_Arrow.bmp,sst_images/Stop_Arrow.bmp,none,706,None,0,59,59,59,,1,0,stop,0.10000000000000002,0.706,1.703069904001546,0.4529300959984539,002,Scanner,R,1,2019_Sep_05_1057,SST,3.0.7,60.06433346601879,
go,sst_images/Left_Arrow.bmp,None,1,711,None,0,60,60,60,,1,1,go,0.10000000000000002,0.711,1.7109999999999999,0.5378605689984397,002,Scanner,R,1,2019_Sep_05_1057,SST,3.0.7,60.06433346601879,
go,sst_images/Left_Arrow.bmp,None,1,1227,None,0,61,61,61,,2,0,go,0.10000000000000002,1.227,2.2270000000000003,0.6377795489988785,002,Scanner,R,1,2019_Sep_05_1057,SST,3.0.7,60.06433346601879,
go,sst_images/Right_Arrow.bmp,None,2,907,None,0,62,62,62,,2,1,go,0.10000000000000002,0.907,1.907,0.4213144410005043,002,Scanner,R,1,2019_Sep_05_1057,SST,3.0.7,60.06433346601879,
go,sst_images/Right_Arrow.bmp,None,2,747,None,0,63,63,63,,None,0,go,0.10000000000000002,0.747,1.7469999999999999,,002,Scanner,R,1,2019_Sep_05_1057,SST,3.0.7,60.06433346601879,
stop,sst_images/Right_Arrow.bmp,sst_images/Stop_Arrow.bmp,none,1533,None,0,64,64,64,,None,1,stop,0.15000000000000002,1.533,2.533,,002,Scanner,R,1,2019_Sep_05_1057,SST,3.0.7,60.06433346601879,
go,sst_images/Left_Arrow.bmp,None,1,1026,None,0,65,65,65,,None,0,go,0.15000000000000002,1.026,2.026,,002,Scanner,R,1,2019_Sep_05_1057,SST,3.0.7,60.06433346601879,
go,sst_images/Right_Arrow.bmp,None,2,1533,None,0,66,66,66,,None,0,go,0.15000000000000002,1.533,2.533,,002,Scanner,R,1,2019_Sep_05_1057,SST,3.0.7,60.06433346601879,
go,sst_images/Left_Arrow.bmp,None,1,844,None,0,67,67,67,,None,0,go,0.15000000000000002,0.844,1.8439999999999999,,002,Scanner,R,1,2019_Sep_05_1057,SST,3.0.7,60.06433346601879,
go,sst_images/Right_Arrow.bmp,None,2,904,None,0,68,68,68,,None,0,go,0.15000000000000002,0.904,1.904,,002,Scanner,R,1,2019_Sep_05_1057,SST,3.0.7,60.06433346601879,
go,sst_images/Right_Arrow.bmp,None,2,823,None,0,69,69,69,,None,0,go,0.15000000000000002,0.823,1.823,,002,Scanner,R,1,2019_Sep_05_1057,SST,3.0.7,60.06433346601879,
go,sst_images/Left_Arrow.bmp,None,1,754,None,0,70,70,70,,1,1,go,0.15000000000000002,0.754,1.754,0.7544603599999391,002,Scanner,R,1,2019_Sep_05_1057,SST,3.0.7,60.06433346601879,
stop,sst_images/Right_Arrow.bmp,sst_images/Stop_Arrow.bmp,none,1116,None,0,71,71,71,,None,1,stop,0.2,1.116,2.1159999999999997,,002,Scanner,R,1,2019_Sep_05_1057,SST,3.0.7,60.06433346601879,
go,sst_images/Right_Arrow.bmp,None,2,864,None,0,72,72,72,,2,1,go,0.2,0.864,1.8639999999999999,0.43617409199941903,002,Scanner,R,1,2019_Sep_05_1057,SST,3.0.7,60.06433346601879,
go,sst_images/Left_Arrow.bmp,None,1,1093,None,0,73,73,73,,1,1,go,0.2,1.093,2.093,0.47117430599973886,002,Scanner,R,1,2019_Sep_05_1057,SST,3.0.7,60.06433346601879,
go,sst_images/Right_Arrow.bmp,None,2,1344,None,0,74,74,74,,2,1,go,0.2,1.344,2.3440000000000003,0.4212387810002838,002,Scanner,R,1,2019_Sep_05_1057,SST,3.0.7,60.06433346601879,
go,sst_images/Left_Arrow.bmp,None,1,957,None,0,75,75,75,,1,1,go,0.2,0.957,1.9569999999999999,0.4198353580013645,002,Scanner,R,1,2019_Sep_05_1057,SST,3.0.7,60.06433346601879,
go,sst_images/Right_Arrow.bmp,None,2,968,None,0,76,76,76,,2,1,go,0.2,0.968,1.968,0.387023240000417,002,Scanner,R,1,2019_Sep_05_1057,SST,3.0.7,60.06433346601879,
go,sst_images/Right_Arrow.bmp,None,2,781,None,0,77,77,77,,2,1,go,0.2,0.781,1.7810000000000001,0.35258909199910704,002,Scanner,R,1,2019_Sep_05_1057,SST,3.0.7,60.06433346601879,
go,sst_images/Left_Arrow.bmp,None,1,714,None,0,78,78,78,,1,1,go,0.2,0.714,1.714,0.40470135700161336,002,Scanner,R,1,2019_Sep_05_1057,SST,3.0.7,60.06433346601879,
go,sst_images/Left_Arrow.bmp,None,1,779,None,0,79,79,79,,1,1,go,0.2,0.779,1.779,0.32108181700095884,002,Scanner,R,1,2019_Sep_05_1057,SST,3.0.7,60.06433346601879,
go,sst_images/Right_Arrow.bmp,None,2,961,None,0,80,80,80,,2,1,go,0.2,0.961,1.9609999999999999,0.3695867830010684,002,Scanner,R,1,2019_Sep_05_1057,SST,3.0.7,60.06433346601879,
go,sst_images/Right_Arrow.bmp,None,2,799,None,0,81,81,81,,2,1,go,0.2,0.799,1.799,0.33465748699927644,002,Scanner,R,1,2019_Sep_05_1057,SST,3.0.7,60.06433346601879,
go,sst_images/Right_Arrow.bmp,None,2,1308,None,0,82,82,82,,2,1,go,0.2,1.308,2.308,0.3988204280012724,002,Scanner,R,1,2019_Sep_05_1057,SST,3.0.7,60.06433346601879,
stop,sst_images/Left_Arrow.bmp,sst_images/Stop_Arrow.bmp,none,796,None,0,83,83,83,,1,0,stop,0.15000000000000002,0.796,1.7741022030001623,0.5218977969998377,002,Scanner,R,1,2019_Sep_05_1057,SST,3.0.7,60.06433346601879,
go,sst_images/Left_Arrow.bmp,None,1,718,None,0,84,84,84,,1,1,go,0.15000000000000002,0.718,1.718,0.4389779160010221,002,Scanner,R,1,2019_Sep_05_1057,SST,3.0.7,60.06433346601879,
go,sst_images/Left_Arrow.bmp,None,1,1258,None,0,85,85,85,,1,1,go,0.15000000000000002,1.258,2.258,0.3364578159998928,002,Scanner,R,1,2019_Sep_05_1057,SST,3.0.7,60.06433346601879,
go,sst_images/Right_Arrow.bmp,None,2,1026,None,0,86,86,86,,2,1,go,0.15000000000000002,1.026,2.026,0.4864769720006734,002,Scanner,R,1,2019_Sep_05_1057,SST,3.0.7,60.06433346601879,
go,sst_images/Left_Arrow.bmp,None,1,1531,None,0,87,87,87,,1,1,go,0.15000000000000002,1.531,2.5309999999999997,0.5851225890000933,002,Scanner,R,1,2019_Sep_05_1057,SST,3.0.7,60.06433346601879,
go,sst_images/Right_Arrow.bmp,None,2,874,None,0,88,88,88,,2,1,go,0.15000000000000002,0.874,1.874,0.338307915999394,002,Scanner,R,1,2019_Sep_05_1057,SST,3.0.7,60.06433346601879,
go,sst_images/Left_Arrow.bmp,None,1,923,None,0,89,89,89,,1,1,go,0.15000000000000002,0.923,1.923,0.4554921610015299,002,Scanner,R,1,2019_Sep_05_1057,SST,3.0.7,60.06433346601879,
go,sst_images/Right_Arrow.bmp,None,2,1602,None,0,90,90,90,,2,1,go,0.15000000000000002,1.602,2.6020000000000003,0.35403894999944896,002,Scanner,R,1,2019_Sep_05_1057,SST,3.0.7,60.06433346601879,
go,sst_images/Left_Arrow.bmp,None,1,827,None,0,91,91,91,,1,1,go,0.15000000000000002,0.827,1.827,0.4531955129987182,002,Scanner,R,1,2019_Sep_05_1057,SST,3.0.7,60.06433346601879,
stop,sst_images/Right_Arrow.bmp,sst_images/Stop_Arrow.bmp,none,732,None,0,92,92,92,,None,1,stop,0.2,0.732,1.732,,002,Scanner,R,1,2019_Sep_05_1057,SST,3.0.7,60.06433346601879,
go,sst_images/Left_Arrow.bmp,None,1,728,None,0,93,93,93,,1,1,go,0.2,0.728,1.728,0.37084320400026627,002,Scanner,R,1,2019_Sep_05_1057,SST,3.0.7,60.06433346601879,
go,sst_images/Left_Arrow.bmp,None,1,730,None,0,94,94,94,,1,1,go,0.2,0.73,1.73,0.3197468470007152,002,Scanner,R,1,2019_Sep_05_1057,SST,3.0.7,60.06433346601879,
go,sst_images/Right_Arrow.bmp,None,2,802,None,0,95,95,95,,2,1,go,0.2,0.802,1.802,0.4219844440012821,002,Scanner,R,1,2019_Sep_05_1057,SST,3.0.7,60.06433346601879,
go,sst_images/Left_Arrow.bmp,None,1,721,None,0,96,96,96,,1,1,go,0.2,0.721,1.721,0.8528438230005122,002,Scanner,R,1,2019_Sep_05_1057,SST,3.0.7,60.06433346601879,
stop,sst_images/Right_Arrow.bmp,sst_images/Stop_Arrow.bmp,none,730,None,0,97,97,97,,None,1,stop,0.25,0.73,1.73,,002,Scanner,R,1,2019_Sep_05_1057,SST,3.0.7,60.06433346601879,
go,sst_images/Right_Arrow.bmp,None,2,1026,None,0,98,98,98,,1,0,go,0.25,1.026,2.026,0.736104288000206,002,Scanner,R,1,2019_Sep_05_1057,SST,3.0.7,60.06433346601879,
go,sst_images/Right_Arrow.bmp,None,2,790,None,0,99,99,99,,2,1,go,0.25,0.79,1.79,0.8030309599998873,002,Scanner,R,1,2019_Sep_05_1057,SST,3.0.7,60.06433346601879,
go,sst_images/Left_Arrow.bmp,None,1,1246,None,0,100,100,100,,1,1,go,0.25,1.246,2.246,0.38575064900032885,002,Scanner,R,1,2019_Sep_05_1057,SST,3.0.7,60.06433346601879,
stop,sst_images/Left_Arrow.bmp,sst_images/Stop_Arrow.bmp,none,1183,None,0,101,101,101,,1,0,stop,0.2,1.183,2.345338847999126,0.3876611520008737,002,Scanner,R,1,2019_Sep_05_1057,SST,3.0.7,60.06433346601879,
go,sst_images/Right_Arrow.bmp,None,2,709,None,0,102,102,102,,2,1,go,0.2,0.709,1.709,0.5188516920006805,002,Scanner,R,1,2019_Sep_05_1057,SST,3.0.7,60.06433346601879,
go,sst_images/Right_Arrow.bmp,None,2,731,None,0,103,103,103,,2,1,go,0.2,0.731,1.7309999999999999,0.5537878229988564,002,Scanner,R,1,2019_Sep_05_1057,SST,3.0.7,60.06433346601879,
go,sst_images/Left_Arrow.bmp,None,1,726,None,0,104,104,104,,1,1,go,0.2,0.726,1.726,0.44883578500048316,002,Scanner,R,1,2019_Sep_05_1057,SST,3.0.7,60.06433346601879,
go,sst_images/Left_Arrow.bmp,None,1,842,None,0,105,105,105,,1,1,go,0.2,0.842,1.842,0.387512016999608,002,Scanner,R,1,2019_Sep_05_1057,SST,3.0.7,60.06433346601879,
go,sst_images/Right_Arrow.bmp,None,2,706,None,0,106,106,106,,2,1,go,0.2,0.706,1.706,0.4714320709990716,002,Scanner,R,1,2019_Sep_05_1057,SST,3.0.7,60.06433346601879,
go,sst_images/Right_Arrow.bmp,None,2,718,None,0,107,107,107,,2,1,go,0.2,0.718,1.718,0.3861952809984359,002,Scanner,R,1,2019_Sep_05_1057,SST,3.0.7,60.06433346601879,
stop,sst_images/Left_Arrow.bmp,sst_images/Stop_Arrow.bmp,none,816,None,0,108,108,108,,None,1,stop,0.25,0.816,1.8159999999999998,,002,Scanner,R,1,2019_Sep_05_1057,SST,3.0.7,60.06433346601879,
go,sst_images/Left_Arrow.bmp,None,1,834,None,0,109,109,109,,1,1,go,0.25,0.834,1.834,0.7544936739996047,002,Scanner,R,1,2019_Sep_05_1057,SST,3.0.7,60.06433346601879,
go,sst_images/Right_Arrow.bmp,None,2,898,None,0,110,110,110,,2,1,go,0.25,0.898,1.8980000000000001,0.42155773700142163,002,Scanner,R,1,2019_Sep_05_1057,SST,3.0.7,60.06433346601879,
go,sst_images/Left_Arrow.bmp,None,1,1726,None,0,111,111,111,,1,1,go,0.25,1.726,2.726,0.471091809000427,002,Scanner,R,1,2019_Sep_05_1057,SST,3.0.7,60.06433346601879,
go,sst_images/Right_Arrow.bmp,None,2,929,None,0,112,112,112,,2,1,go,0.25,0.929,1.929,0.5050791659996321,002,Scanner,R,1,2019_Sep_05_1057,SST,3.0.7,60.06433346601879,
go,sst_images/Left_Arrow.bmp,None,1,1298,None,0,113,113,113,,1,1,go,0.25,1.298,2.298,0.5377977709995321,002,Scanner,R,1,2019_Sep_05_1057,SST,3.0.7,60.06433346601879,
go,sst_images/Right_Arrow.bmp,None,2,1043,None,0,114,114,114,,2,1,go,0.25,1.043,2.043,0.5870229109987122,002,Scanner,R,1,2019_Sep_05_1057,SST,3.0.7,60.06433346601879,
go,sst_images/Left_Arrow.bmp,None,1,790,None,0,115,115,115,,1,1,go,0.25,0.79,1.79,0.48775587900126993,002,Scanner,R,1,2019_Sep_05_1057,SST,3.0.7,60.06433346601879,
go,sst_images/Right_Arrow.bmp,None,2,724,None,0,116,116,116,,2,1,go,0.25,0.724,1.724,0.6209938439988036,002,Scanner,R,1,2019_Sep_05_1057,SST,3.0.7,60.06433346601879,
stop,sst_images/Right_Arrow.bmp,sst_images/Stop_Arrow.bmp,none,953,None,0,117,117,117,,None,1,stop,0.3,0.953,1.953,,002,Scanner,R,1,2019_Sep_05_1057,SST,3.0.7,60.06433346601879,
go,sst_images/Left_Arrow.bmp,None,1,708,None,0,118,118,118,,None,0,go,0.3,0.708,1.708,,002,Scanner,R,1,2019_Sep_05_1057,SST,3.0.7,60.06433346601879,
go,sst_images/Right_Arrow.bmp,None,2,986,None,0,119,119,119,,None,0,go,0.3,0.986,1.986,,002,Scanner,R,1,2019_Sep_05_1057,SST,3.0.7,60.06433346601879,
go,sst_images/Left_Arrow.bmp,None,1,887,None,0,120,120,120,,None,0,go,0.3,0.887,1.887,,002,Scanner,R,1,2019_Sep_05_1057,SST,3.0.7,60.06433346601879,
go,sst_images/Right_Arrow.bmp,None,2,978,None,0,121,121,121,,None,0,go,0.3,0.978,1.978,,002,Scanner,R,1,2019_Sep_05_1057,SST,3.0.7,60.06433346601879,
go,sst_images/Right_Arrow.bmp,None,2,729,None,0,122,122,122,,None,0,go,0.3,0.729,1.729,,002,Scanner,R,1,2019_Sep_05_1057,SST,3.0.7,60.06433346601879,
go,sst_images/Left_Arrow.bmp,None,1,735,None,0,123,123,123,,None,0,go,0.3,0.735,1.7349999999999999,,002,Scanner,R,1,2019_Sep_05_1057,SST,3.0.7,60.06433346601879,
stop,sst_images/Left_Arrow.bmp,sst_images/Stop_Arrow.bmp,none,838,None,0,124,124,124,,None,1,stop,0.35,0.838,1.838,,002,Scanner,R,1,2019_Sep_05_1057,SST,3.0.7,60.06433346601879,
go,sst_images/Left_Arrow.bmp,None,1,832,None,0,125,125,125,,1,1,go,0.35,0.832,1.8319999999999999,0.4102572849988064,002,Scanner,R,1,2019_Sep_05_1057,SST,3.0.7,60.06433346601879,
go,sst_images/Left_Arrow.bmp,None,1,714,None,0,126,126,126,,1,1,go,0.35,0.714,1.714,0.34266448299968033,002,Scanner,R,1,2019_Sep_05_1057,SST,3.0.7,60.06433346601879,
go,sst_images/Right_Arrow.bmp,None,2,730,None,0,127,127,127,,2,1,go,0.35,0.73,1.73,0.4017091870009608,002,Scanner,R,1,2019_Sep_05_1057,SST,3.0.7,60.06433346601879,
go,sst_images/Left_Arrow.bmp,None,1,1027,None,0,128,128,128,,1,1,go,0.35,1.027,2.027,0.42565128299975186,002,Scanner,R,1,2019_Sep_05_1057,SST,3.0.7,60.06433346601879,
stop,sst_images/Left_Arrow.bmp,sst_images/Stop_Arrow.bmp,none,796,None,0,129,129,129,,1,0,stop,0.3,0.796,2.1135775080002492,0.3324224919997505,002,Scanner,R,1,2019_Sep_05_1057,SST,3.0.7,60.06433346601879,
go,sst_images/Left_Arrow.bmp,None,1,764,None,0,130,130,130,,1,1,go,0.3,0.764,1.764,0.3222869279998122,002,Scanner,R,1,2019_Sep_05_1057,SST,3.0.7,60.06433346601879,
go,sst_images/Left_Arrow.bmp,None,1,742,None,0,131,131,131,,1,1,go,0.3,0.742,1.742,0.38736977000007755,002,Scanner,R,1,2019_Sep_05_1057,SST,3.0.7,60.06433346601879,
stop,sst_images/Right_Arrow.bmp,sst_images/Stop_Arrow.bmp,none,705,None,0,132,132,132,,2,0,stop,0.25,0.705,1.8836344290008857,0.4213655709991144,002,Scanner,R,1,2019_Sep_05_1057,SST,3.0.7,60.06433346601879,
go,sst_images/Right_Arrow.bmp,None,2,722,None,0,133,133,133,,2,1,go,0.25,0.722,1.722,0.6575657800003682,002,Scanner,R,1,2019_Sep_05_1057,SST,3.0.7,60.06433346601879,
go,sst_images/Left_Arrow.bmp,None,1,956,None,0,134,134,134,,1,1,go,0.25,0.956,1.956,0.37644951999936893,002,Scanner,R,1,2019_Sep_05_1057,SST,3.0.7,60.06433346601879,
go,sst_images/Left_Arrow.bmp,None,1,884,None,0,135,135,135,,1,1,go,0.25,0.884,1.884,0.32359079600064433,002,Scanner,R,1,2019_Sep_05_1057,SST,3.0.7,60.06433346601879,
stop,sst_images/Left_Arrow.bmp,sst_images/Stop_Arrow.bmp,none,722,None,0,136,136,136,,1,0,stop,0.2,0.722,1.978580441999904,0.293419558000096,002,Scanner,R,1,2019_Sep_05_1057,SST,3.0.7,60.06433346601879,
go,sst_images/Right_Arrow.bmp,None,2,816,None,0,137,137,137,,2,1,go,0.2,0.816,1.8159999999999998,0.37750648600012937,002,Scanner,R,1,2019_Sep_05_1057,SST,3.0.7,60.06433346601879,
go,sst_images/Right_Arrow.bmp,None,2,846,None,0,138,138,138,,2,1,go,0.2,0.846,1.846,0.3762303619987506,002,Scanner,R,1,2019_Sep_05_1057,SST,3.0.7,60.06433346601879,
go,sst_images/Left_Arrow.bmp,None,1,1091,None,0,139,139,139,,1,1,go,0.2,1.091,2.091,0.4575823560007848,002,Scanner,R,1,2019_Sep_05_1057,SST,3.0.7,60.06433346601879,
go,sst_images/Right_Arrow.bmp,None,2,1235,None,0,140,140,140,,2,1,go,0.2,1.235,2.2350000000000003,0.45218423000005714,002,Scanner,R,1,2019_Sep_05_1057,SST,3.0.7,60.06433346601879,
go,sst_images/Left_Arrow.bmp,None,1,834,None,0,141,141,141,,1,1,go,0.2,0.834,1.834,0.5421593250011938,002,Scanner,R,1,2019_Sep_05_1057,SST,3.0.7,60.06433346601879,
stop,sst_images/Right_Arrow.bmp,sst_images/Stop_Arrow.bmp,none,850,None,0,142,142,142,,2,0,stop,0.15000000000000002,0.85,1.8901133539999138,0.45988664600008633,002,Scanner,R,1,2019_Sep_05_1057,SST,3.0.7,60.06433346601879,
go,sst_images/Left_Arrow.bmp,None,1,756,None,0,143,143,143,,1,1,go,0.15000000000000002,0.756,1.756,0.49055846800001746,002,Scanner,R,1,2019_Sep_05_1057,SST,3.0.7,60.06433346601879,
go,sst_images/Right_Arrow.bmp,None,2,846,None,0,144,144,144,,2,1,go,0.15000000000000002,0.846,1.846,0.39168100300048536,002,Scanner,R,1,2019_Sep_05_1057,SST,3.0.7,60.06433346601879,
go,sst_images/Left_Arrow.bmp,None,1,836,None,0,145,145,145,,1,1,go,0.15000000000000002,0.836,1.8359999999999999,0.4927547520001099,002,Scanner,R,1,2019_Sep_05_1057,SST,3.0.7,60.06433346601879,
go,sst_images/Right_Arrow.bmp,None,2,1172,None,0,146,146,146,,2,1,go,0.15000000000000002,1.172,2.1719999999999997,0.42523392899965984,002,Scanner,R,1,2019_Sep_05_1057,SST,3.0.7,60.06433346601879,
stop,sst_images/Right_Arrow.bmp,sst_images/Stop_Arrow.bmp,none,910,None,0,147,147,147,,2,0,stop,0.10000000000000002,0.91,1.9571850839996479,0.40281491600035224,002,Scanner,R,1,2019_Sep_05_1057,SST,3.0.7,60.06433346601879,
go,sst_images/Left_Arrow.bmp,None,1,802,None,0,148,148,148,,1,1,go,0.10000000000000002,0.802,1.802,0.3426184780000767,002,Scanner,R,1,2019_Sep_05_1057,SST,3.0.7,60.06433346601879,
go,sst_images/Right_Arrow.bmp,None,2,729,None,0,149,149,149,,2,1,go,0.10000000000000002,0.729,1.729,0.5244034409988672,002,Scanner,R,1,2019_Sep_05_1057,SST,3.0.7,60.06433346601879,
go,sst_images/Right_Arrow.bmp,None,2,838,None,0,150,150,150,,2,1,go,0.10000000000000002,0.838,1.838,0.7574968079989048,002,Scanner,R,1,2019_Sep_05_1057,SST,3.0.7,60.06433346601879,
stop,sst_images/Left_Arrow.bmp,sst_images/Stop_Arrow.bmp,none,737,None,0,151,151,151,,None,1,stop,0.15000000000000002,0.737,1.737,,002,Scanner,R,1,2019_Sep_05_1057,SST,3.0.7,60.06433346601879,
go,sst_images/Left_Arrow.bmp,None,1,902,None,0,152,152,152,,1,1,go,0.15000000000000002,0.902,1.9020000000000001,0.45870073499827413,002,Scanner,R,1,2019_Sep_05_1057,SST,3.0.7,60.06433346601879,
go,sst_images/Right_Arrow.bmp,None,2,812,None,0,153,153,153,,2,1,go,0.15000000000000002,0.812,1.812,0.3715099940000073,002,Scanner,R,1,2019_Sep_05_1057,SST,3.0.7,60.06433346601879,
stop,sst_images/Left_Arrow.bmp,sst_images/Stop_Arrow.bmp,none,1014,None,0,154,154,154,,1,0,stop,0.10000000000000002,1.014,2.076196412999765,0.387803587000235,002,Scanner,R,1,2019_Sep_05_1057,SST,3.0.7,60.06433346601879,
go,sst_images/Left_Arrow.bmp,None,1,736,None,0,155,155,155,,1,1,go,0.10000000000000002,0.736,1.736,0.3590247120009735,002,Scanner,R,1,2019_Sep_05_1057,SST,3.0.7,60.06433346601879,
go,sst_images/Right_Arrow.bmp,None,2,1391,None,0,156,156,156,,2,1,go,0.10000000000000002,1.391,2.391,0.6546278080004413,002,Scanner,R,1,2019_Sep_05_1057,SST,3.0.7,60.06433346601879,
go,sst_images/Left_Arrow.bmp,None,1,816,None,0,157,157,157,,1,1,go,0.10000000000000002,0.816,1.8159999999999998,0.4547700840012112,002,Scanner,R,1,2019_Sep_05_1057,SST,3.0.7,60.06433346601879,
go,sst_images/Right_Arrow.bmp,None,2,1047,None,0,158,158,158,,2,1,go,0.10000000000000002,1.047,2.0469999999999997,0.37152276300002995,002,Scanner,R,1,2019_Sep_05_1057,SST,3.0.7,60.06433346601879,
stop,sst_images/Left_Arrow.bmp,sst_images/Stop_Arrow.bmp,none,1726,None,0,159,159,159,,None,1,stop,0.15000000000000002,1.726,2.726,,002,Scanner,R,1,2019_Sep_05_1057,SST,3.0.7,60.06433346601879,
go,sst_images/Left_Arrow.bmp,None,1,730,None,0,160,160,160,,1,1,go,0.15000000000000002,0.73,1.73,0.3210108460007177,002,Scanner,R,1,2019_Sep_05_1057,SST,3.0.7,60.06433346601879,
go,sst_images/Left_Arrow.bmp,None,1,870,None,0,161,161,161,,1,1,go,0.15000000000000002,0.87,1.87,0.36710358900018036,002,Scanner,R,1,2019_Sep_05_1057,SST,3.0.7,60.06433346601879,
go,sst_images/Right_Arrow.bmp,None,2,1053,None,0,162,162,162,,2,1,go,0.15000000000000002,1.053,2.053,0.453831173999788,002,Scanner,R,1,2019_Sep_05_1057,SST,3.0.7,60.06433346601879,
go,sst_images/Left_Arrow.bmp,None,1,958,None,0,163,163,163,,1,1,go,0.15000000000000002,0.958,1.958,0.5543412730003183,002,Scanner,R,1,2019_Sep_05_1057,SST,3.0.7,60.06433346601879,
go,sst_images/Right_Arrow.bmp,None,2,1014,None,0,164,164,164,,2,1,go,0.15000000000000002,1.014,2.0140000000000002,0.32017819300017436,002,Scanner,R,1,2019_Sep_05_1057,SST,3.0.7,60.06433346601879,
go,sst_images/Right_Arrow.bmp,None,2,802,None,0,165,165,165,,2,1,go,0.15000000000000002,0.802,1.802,0.35440590800135396,002,Scanner,R,1,2019_Sep_05_1057,SST,3.0.7,60.06433346601879,
go,sst_images/Right_Arrow.bmp,None,2,784,None,0,166,166,166,,2,1,go,0.15000000000000002,0.784,1.784,0.4711048419994768,002,Scanner,R,1,2019_Sep_05_1057,SST,3.0.7,60.06433346601879,
stop,sst_images/Right_Arrow.bmp,sst_images/Stop_Arrow.bmp,none,718,None,0,167,167,167,,1,0,stop,0.10000000000000002,0.718,2.1324656650016256,0.035534334998374106,002,Scanner,R,1,2019_Sep_05_1057,SST,3.0.7,60.06433346601879,
go,sst_images/Left_Arrow.bmp,None,1,1038,None,0,168,168,168,,1,1,go,0.10000000000000002,1.038,2.0380000000000003,0.5887564010008646,002,Scanner,R,1,2019_Sep_05_1057,SST,3.0.7,60.06433346601879,
go,sst_images/Right_Arrow.bmp,None,2,705,None,0,169,169,169,,2,1,go,0.10000000000000002,0.705,1.705,0.4037160580010095,002,Scanner,R,1,2019_Sep_05_1057,SST,3.0.7,60.06433346601879,
go,sst_images/Right_Arrow.bmp,None,2,853,None,0,170,170,170,,2,1,go,0.10000000000000002,0.853,1.853,0.5858946400003333,002,Scanner,R,1,2019_Sep_05_1057,SST,3.0.7,60.06433346601879,
go,sst_images/Left_Arrow.bmp,None,1,861,None,0,171,171,171,,1,1,go,0.10000000000000002,0.861,1.861,0.38824392700007593,002,Scanner,R,1,2019_Sep_05_1057,SST,3.0.7,60.06433346601879,
go,sst_images/Right_Arrow.bmp,None,2,1280,None,0,172,172,172,,1,0,go,0.10000000000000002,1.28,2.2800000000000002,0.9211509289998503,002,Scanner,R,1,2019_Sep_05_1057,SST,3.0.7,60.06433346601879,
stop,sst_images/Left_Arrow.bmp,sst_images/Stop_Arrow.bmp,none,1026,None,0,173,173,173,,None,1,stop,0.15000000000000002,1.026,2.026,,002,Scanner,R,1,2019_Sep_05_1057,SST,3.0.7,60.06433346601879,
go,sst_images/Right_Arrow.bmp,None,2,1176,None,0,174,174,174,,2,1,go,0.15000000000000002,1.176,2.176,0.38919608799915295,002,Scanner,R,1,2019_Sep_05_1057,SST,3.0.7,60.06433346601879,
go,sst_images/Right_Arrow.bmp,None,2,782,None,0,175,175,175,,2,1,go,0.15000000000000002,0.782,1.782,0.4363274499992258,002,Scanner,R,1,2019_Sep_05_1057,SST,3.0.7,60.06433346601879,
go,sst_images/Left_Arrow.bmp,None,1,881,None,0,176,176,176,,1,1,go,0.15000000000000002,0.881,1.881,0.6533537510003953,002,Scanner,R,1,2019_Sep_05_1057,SST,3.0.7,60.06433346601879,
go,sst_images/Right_Arrow.bmp,None,2,1235,None,0,177,177,177,,2,1,go,0.15000000000000002,1.235,2.2350000000000003,0.5054934229992796,002,Scanner,R,1,2019_Sep_05_1057,SST,3.0.7,60.06433346601879,
go,sst_images/Left_Arrow.bmp,None,1,1432,None,0,178,178,178,,1,1,go,0.15000000000000002,1.432,2.432,0.4047318569992058,002,Scanner,R,1,2019_Sep_05_1057,SST,3.0.7,60.06433346601879,
go,sst_images/Right_Arrow.bmp,None,2,750,4023.0,0,179,179,179,,2,1,go,0.15000000000000002,0.75,1.75,0.48757232100069814,002,Scanner,R,1,2019_Sep_05_1057,SST,3.0.7,60.06433346601879,
