trial_type,arrow_1,arrow_2,corrAns,jitter,run_end_fixation,trials.thisRepN,trials.thisTrialN,trials.thisN,trials.thisIndex,randomized TrialOrder,key_response.keys,key_response.corr,key_response.rt,trial_t.routineEndVal,ss_delay,iti_duration,SOA,participant,prac_or_scan,handedness,run,date,expName,psychopyVersion,frameRate,
go,sst_images/Left_Arrow.bmp,None,1,1057,None,0,0,0,0,11,1,1,0.5702613229950657,go,0.05,1.057,2.057,003,Scanner,R,2,2019_Sep_07_1121,SST,3.0.7,60.30245165187953,
go,sst_images/Right_Arrow.bmp,None,2,761,None,0,1,1,1,,2,1,0.32018812800379237,go,0.05,0.761,1.7610000000000001,003,Scanner,R,2,2019_Sep_07_1121,SST,3.0.7,60.30245165187953,
go,sst_images/Right_Arrow.bmp,None,2,1025,None,0,2,2,2,,2,1,0.3511149649930303,go,0.05,1.025,2.025,003,Scanner,R,2,2019_Sep_07_1121,SST,3.0.7,60.30245165187953,
go,sst_images/Left_Arrow.bmp,None,1,745,None,0,3,3,3,,1,1,0.4048202889971435,go,0.05,0.745,1.745,003,Scanner,R,2,2019_Sep_07_1121,SST,3.0.7,60.30245165187953,
go,sst_images/Left_Arrow.bmp,None,1,1362,None,0,4,4,4,,1,1,0.4174268490023678,go,0.05,1.362,2.362,003,Scanner,R,2,2019_Sep_07_1121,SST,3.0.7,60.30245165187953,
go,sst_images/Right_Arrow.bmp,None,2,804,None,0,5,5,5,,2,1,0.40233375399839133,go,0.05,0.804,1.804,003,Scanner,R,2,2019_Sep_07_1121,SST,3.0.7,60.30245165187953,
go,sst_images/Left_Arrow.bmp,None,1,821,None,0,6,6,6,,1,1,0.3202893319976283,go,0.05,0.821,1.821,003,Scanner,R,2,2019_Sep_07_1121,SST,3.0.7,60.30245165187953,
stop,sst_images/Right_Arrow.bmp,sst_images/Stop_Arrow.bmp,none,1001,None,0,7,7,7,,None,1,,stop,0.1,1.001,2.001,003,Scanner,R,2,2019_Sep_07_1121,SST,3.0.7,60.30245165187953,
go,sst_images/Right_Arrow.bmp,None,2,1025,None,0,8,8,8,,2,1,0.47393679800006794,go,0.1,1.025,2.025,003,Scanner,R,2,2019_Sep_07_1121,SST,3.0.7,60.30245165187953,
go,sst_images/Right_Arrow.bmp,None,2,832,None,0,9,9,9,,2,1,0.45521719599491917,go,0.1,0.832,1.8319999999999999,003,Scanner,R,2,2019_Sep_07_1121,SST,3.0.7,60.30245165187953,
go,sst_images/Left_Arrow.bmp,None,1,773,None,0,10,10,10,,1,1,0.5022923319993424,go,0.1,0.773,1.7730000000000001,003,Scanner,R,2,2019_Sep_07_1121,SST,3.0.7,60.30245165187953,
go,sst_images/Right_Arrow.bmp,None,2,1479,None,0,11,11,11,,2,1,0.42151672600448364,go,0.1,1.479,2.479,003,Scanner,R,2,2019_Sep_07_1121,SST,3.0.7,60.30245165187953,
go,sst_images/Left_Arrow.bmp,None,1,801,None,0,12,12,12,,1,1,0.3683015999995405,go,0.1,0.801,1.8010000000000002,003,Scanner,R,2,2019_Sep_07_1121,SST,3.0.7,60.30245165187953,
go,sst_images/Left_Arrow.bmp,None,1,789,None,0,13,13,13,,1,1,0.48754001599445473,go,0.1,0.789,1.7890000000000001,003,Scanner,R,2,2019_Sep_07_1121,SST,3.0.7,60.30245165187953,
go,sst_images/Left_Arrow.bmp,None,1,766,None,0,14,14,14,,1,1,0.4874872470027185,go,0.1,0.766,1.766,003,Scanner,R,2,2019_Sep_07_1121,SST,3.0.7,60.30245165187953,
go,sst_images/Right_Arrow.bmp,None,2,891,None,0,15,15,15,,2,1,0.38315113699354697,go,0.1,0.891,1.891,003,Scanner,R,2,2019_Sep_07_1121,SST,3.0.7,60.30245165187953,
go,sst_images/Left_Arrow.bmp,None,1,868,None,0,16,16,16,,1,1,0.6521157949973713,go,0.1,0.868,1.8679999999999999,003,Scanner,R,2,2019_Sep_07_1121,SST,3.0.7,60.30245165187953,
go,sst_images/Left_Arrow.bmp,None,1,1445,None,0,17,17,17,,1,1,0.5046262670002761,go,0.1,1.445,2.4450000000000003,003,Scanner,R,2,2019_Sep_07_1121,SST,3.0.7,60.30245165187953,
go,sst_images/Right_Arrow.bmp,None,2,1033,None,0,18,18,18,,2,1,0.33557372199720703,go,0.1,1.033,2.033,003,Scanner,R,2,2019_Sep_07_1121,SST,3.0.7,60.30245165187953,
go,sst_images/Left_Arrow.bmp,None,1,1103,None,0,19,19,19,,1,1,0.42148539899790194,go,0.1,1.103,2.1029999999999998,003,Scanner,R,2,2019_Sep_07_1121,SST,3.0.7,60.30245165187953,
go,sst_images/Right_Arrow.bmp,None,2,808,None,0,20,20,20,,2,1,0.3179465240027639,go,0.1,0.808,1.808,003,Scanner,R,2,2019_Sep_07_1121,SST,3.0.7,60.30245165187953,
go,sst_images/Left_Arrow.bmp,None,1,1401,None,0,21,21,21,,1,1,0.3692698710001423,go,0.1,1.401,2.401,003,Scanner,R,2,2019_Sep_07_1121,SST,3.0.7,60.30245165187953,
go,sst_images/Right_Arrow.bmp,None,2,834,None,0,22,22,22,,2,1,0.3210921909994795,go,0.1,0.834,1.834,003,Scanner,R,2,2019_Sep_07_1121,SST,3.0.7,60.30245165187953,
go,sst_images/Right_Arrow.bmp,None,2,1551,None,0,23,23,23,,2,1,0.5862796770015848,go,0.1,1.551,2.551,003,Scanner,R,2,2019_Sep_07_1121,SST,3.0.7,60.30245165187953,
go,sst_images/Left_Arrow.bmp,None,1,770,None,0,24,24,24,,1,1,0.45416301699879114,go,0.1,0.77,1.77,003,Scanner,R,2,2019_Sep_07_1121,SST,3.0.7,60.30245165187953,
stop,sst_images/Left_Arrow.bmp,sst_images/Stop_Arrow.bmp,none,801,None,0,25,25,25,,None,1,,stop,0.15000000000000002,0.801,1.8010000000000002,003,Scanner,R,2,2019_Sep_07_1121,SST,3.0.7,60.30245165187953,
go,sst_images/Right_Arrow.bmp,None,2,810,None,0,26,26,26,,2,1,0.4053113919944735,go,0.15000000000000002,0.81,1.81,003,Scanner,R,2,2019_Sep_07_1121,SST,3.0.7,60.30245165187953,
go,sst_images/Right_Arrow.bmp,None,2,783,None,0,27,27,27,,2,1,0.4043810580042191,go,0.15000000000000002,0.783,1.783,003,Scanner,R,2,2019_Sep_07_1121,SST,3.0.7,60.30245165187953,
go,sst_images/Left_Arrow.bmp,None,1,1008,None,0,28,28,28,,1,1,0.5354832150042057,go,0.15000000000000002,1.008,2.008,003,Scanner,R,2,2019_Sep_07_1121,SST,3.0.7,60.30245165187953,
stop,sst_images/Left_Arrow.bmp,sst_images/Stop_Arrow.bmp,none,725,None,0,29,29,29,,None,1,,stop,0.2,0.725,1.7249999999999999,003,Scanner,R,2,2019_Sep_07_1121,SST,3.0.7,60.30245165187953,
go,sst_images/Right_Arrow.bmp,None,2,737,None,0,30,30,30,,2,1,0.4011036120064091,go,0.2,0.737,1.737,003,Scanner,R,2,2019_Sep_07_1121,SST,3.0.7,60.30245165187953,
go,sst_images/Left_Arrow.bmp,None,1,826,None,0,31,31,31,,1,1,0.42111048600054346,go,0.2,0.826,1.826,003,Scanner,R,2,2019_Sep_07_1121,SST,3.0.7,60.30245165187953,
stop,sst_images/Right_Arrow.bmp,sst_images/Stop_Arrow.bmp,none,717,None,0,32,32,32,,2,0,0.3044165259998408,stop,0.15000000000000002,0.717,1.9125834740001593,003,Scanner,R,2,2019_Sep_07_1121,SST,3.0.7,60.30245165187953,
go,sst_images/Left_Arrow.bmp,None,1,812,None,0,33,33,33,,1,1,0.3546370969997952,go,0.15000000000000002,0.812,1.812,003,Scanner,R,2,2019_Sep_07_1121,SST,3.0.7,60.30245165187953,
go,sst_images/Right_Arrow.bmp,None,2,768,None,0,34,34,34,,2,1,0.5364444750011899,go,0.15000000000000002,0.768,1.768,003,Scanner,R,2,2019_Sep_07_1121,SST,3.0.7,60.30245165187953,
go,sst_images/Right_Arrow.bmp,None,2,957,None,0,35,35,35,,2,1,0.4384580259938957,go,0.15000000000000002,0.957,1.9569999999999999,003,Scanner,R,2,2019_Sep_07_1121,SST,3.0.7,60.30245165187953,
go,sst_images/Left_Arrow.bmp,None,1,812,None,0,36,36,36,,1,1,0.3789210680042743,go,0.15000000000000002,0.812,1.812,003,Scanner,R,2,2019_Sep_07_1121,SST,3.0.7,60.30245165187953,
stop,sst_images/Right_Arrow.bmp,sst_images/Stop_Arrow.bmp,none,727,None,0,37,37,37,,2,0,0.40372034900065046,stop,0.10000000000000002,0.727,1.7732796509993494,003,Scanner,R,2,2019_Sep_07_1121,SST,3.0.7,60.30245165187953,
go,sst_images/Left_Arrow.bmp,None,1,818,None,0,38,38,38,,1,1,0.36929985000460874,go,0.10000000000000002,0.818,1.818,003,Scanner,R,2,2019_Sep_07_1121,SST,3.0.7,60.30245165187953,
go,sst_images/Right_Arrow.bmp,None,2,746,None,0,39,39,39,,2,1,0.37015930699999444,go,0.10000000000000002,0.746,1.746,003,Scanner,R,2,2019_Sep_07_1121,SST,3.0.7,60.30245165187953,
go,sst_images/Left_Arrow.bmp,None,1,834,None,0,40,40,40,,1,1,0.5280639430056908,go,0.10000000000000002,0.834,1.834,003,Scanner,R,2,2019_Sep_07_1121,SST,3.0.7,60.30245165187953,
go,sst_images/Left_Arrow.bmp,None,1,1211,None,0,41,41,41,,1,1,0.5376333780004643,go,0.10000000000000002,1.211,2.2110000000000003,003,Scanner,R,2,2019_Sep_07_1121,SST,3.0.7,60.30245165187953,
stop,sst_images/Left_Arrow.bmp,sst_images/Stop_Arrow.bmp,none,811,None,0,42,42,42,,None,1,,stop,0.15000000000000002,0.811,1.8110000000000002,003,Scanner,R,2,2019_Sep_07_1121,SST,3.0.7,60.30245165187953,
go,sst_images/Right_Arrow.bmp,None,2,776,None,0,43,43,43,,2,1,0.4374575139954686,go,0.15000000000000002,0.776,1.776,003,Scanner,R,2,2019_Sep_07_1121,SST,3.0.7,60.30245165187953,
go,sst_images/Right_Arrow.bmp,None,2,962,None,0,44,44,44,,2,1,0.35276247300498653,go,0.15000000000000002,0.962,1.962,003,Scanner,R,2,2019_Sep_07_1121,SST,3.0.7,60.30245165187953,
go,sst_images/Right_Arrow.bmp,None,2,871,None,0,45,45,45,,2,1,0.42025582199858036,go,0.15000000000000002,0.871,1.871,003,Scanner,R,2,2019_Sep_07_1121,SST,3.0.7,60.30245165187953,
go,sst_images/Left_Arrow.bmp,None,1,820,None,0,46,46,46,,1,1,0.38830930100084515,go,0.15000000000000002,0.82,1.8199999999999998,003,Scanner,R,2,2019_Sep_07_1121,SST,3.0.7,60.30245165187953,
go,sst_images/Left_Arrow.bmp,None,1,706,None,0,47,47,47,,1,1,0.5192082880021189,go,0.15000000000000002,0.706,1.706,003,Scanner,R,2,2019_Sep_07_1121,SST,3.0.7,60.30245165187953,
go,sst_images/Left_Arrow.bmp,None,1,970,None,0,48,48,48,,1,1,0.48645344599935925,go,0.15000000000000002,0.97,1.97,003,Scanner,R,2,2019_Sep_07_1121,SST,3.0.7,60.30245165187953,
go,sst_images/Right_Arrow.bmp,None,2,1184,None,0,49,49,49,,2,1,0.38748181099799694,go,0.15000000000000002,1.184,2.184,003,Scanner,R,2,2019_Sep_07_1121,SST,3.0.7,60.30245165187953,
go,sst_images/Right_Arrow.bmp,None,2,731,None,0,50,50,50,,2,1,0.36439392299507745,go,0.15000000000000002,0.731,1.7309999999999999,003,Scanner,R,2,2019_Sep_07_1121,SST,3.0.7,60.30245165187953,
go,sst_images/Left_Arrow.bmp,None,1,715,None,0,51,51,51,,1,1,0.4704448569973465,go,0.15000000000000002,0.715,1.7149999999999999,003,Scanner,R,2,2019_Sep_07_1121,SST,3.0.7,60.30245165187953,
go,sst_images/Left_Arrow.bmp,None,1,748,None,0,52,52,52,,2,0,0.32507683699805057,go,0.15000000000000002,0.748,1.748,003,Scanner,R,2,2019_Sep_07_1121,SST,3.0.7,60.30245165187953,
stop,sst_images/Right_Arrow.bmp,sst_images/Stop_Arrow.bmp,none,808,None,0,53,53,53,,2,0,0.42680298799677985,stop,0.10000000000000002,0.808,1.8311970120032204,003,Scanner,R,2,2019_Sep_07_1121,SST,3.0.7,60.30245165187953,
go,sst_images/Left_Arrow.bmp,None,1,765,None,0,54,54,54,,1,1,0.47127171399915824,go,0.10000000000000002,0.765,1.7650000000000001,003,Scanner,R,2,2019_Sep_07_1121,SST,3.0.7,60.30245165187953,
go,sst_images/Right_Arrow.bmp,None,2,871,None,0,55,55,55,,2,1,0.39349899900116725,go,0.10000000000000002,0.871,1.871,003,Scanner,R,2,2019_Sep_07_1121,SST,3.0.7,60.30245165187953,
go,sst_images/Left_Arrow.bmp,None,1,730,None,0,56,56,56,,1,1,0.5760235310008284,go,0.10000000000000002,0.73,1.73,003,Scanner,R,2,2019_Sep_07_1121,SST,3.0.7,60.30245165187953,
stop,sst_images/Right_Arrow.bmp,sst_images/Stop_Arrow.bmp,none,766,None,0,57,57,57,,None,1,,stop,0.15000000000000002,0.766,1.7660000000000002,003,Scanner,R,2,2019_Sep_07_1121,SST,3.0.7,60.30245165187953,
go,sst_images/Left_Arrow.bmp,None,1,839,None,0,58,58,58,,1,1,0.46917614900303306,go,0.15000000000000002,0.839,1.839,003,Scanner,R,2,2019_Sep_07_1121,SST,3.0.7,60.30245165187953,
go,sst_images/Right_Arrow.bmp,None,2,842,None,0,59,59,59,,2,1,0.375707548999344,go,0.15000000000000002,0.842,1.842,003,Scanner,R,2,2019_Sep_07_1121,SST,3.0.7,60.30245165187953,
go,sst_images/Right_Arrow.bmp,None,2,721,None,0,60,60,60,,2,1,0.4101918719970854,go,0.15000000000000002,0.721,1.721,003,Scanner,R,2,2019_Sep_07_1121,SST,3.0.7,60.30245165187953,
stop,sst_images/Left_Arrow.bmp,sst_images/Stop_Arrow.bmp,none,746,None,0,61,61,61,,None,1,,stop,0.2,0.746,1.7459999999999998,003,Scanner,R,2,2019_Sep_07_1121,SST,3.0.7,60.30245165187953,
go,sst_images/Left_Arrow.bmp,None,1,710,None,0,62,62,62,,1,1,0.47516986699338304,go,0.2,0.71,1.71,003,Scanner,R,2,2019_Sep_07_1121,SST,3.0.7,60.30245165187953,
go,sst_images/Right_Arrow.bmp,None,2,864,None,0,63,63,63,,2,1,0.34207217199582374,go,0.2,0.864,1.8639999999999999,003,Scanner,R,2,2019_Sep_07_1121,SST,3.0.7,60.30245165187953,
go,sst_images/Left_Arrow.bmp,None,1,804,None,0,64,64,64,,1,1,0.436285764000786,go,0.2,0.804,1.804,003,Scanner,R,2,2019_Sep_07_1121,SST,3.0.7,60.30245165187953,
stop,sst_images/Right_Arrow.bmp,sst_images/Stop_Arrow.bmp,none,1179,None,0,65,65,65,,2,0,0.36960636699950555,stop,0.15000000000000002,1.179,2.3093936330004943,003,Scanner,R,2,2019_Sep_07_1121,SST,3.0.7,60.30245165187953,
go,sst_images/Right_Arrow.bmp,None,2,713,None,0,66,66,66,,1,0,0.35572353600582574,go,0.15000000000000002,0.713,1.713,003,Scanner,R,2,2019_Sep_07_1121,SST,3.0.7,60.30245165187953,
go,sst_images/Right_Arrow.bmp,None,2,842,None,0,67,67,67,,2,1,0.47623388200008776,go,0.15000000000000002,0.842,1.842,003,Scanner,R,2,2019_Sep_07_1121,SST,3.0.7,60.30245165187953,
go,sst_images/Left_Arrow.bmp,None,1,738,None,0,68,68,68,,1,1,0.4426874519995181,go,0.15000000000000002,0.738,1.738,003,Scanner,R,2,2019_Sep_07_1121,SST,3.0.7,60.30245165187953,
go,sst_images/Right_Arrow.bmp,None,2,765,None,0,69,69,69,,2,1,0.40990196199709317,go,0.15000000000000002,0.765,1.7650000000000001,003,Scanner,R,2,2019_Sep_07_1121,SST,3.0.7,60.30245165187953,
stop,sst_images/Left_Arrow.bmp,sst_images/Stop_Arrow.bmp,none,1224,None,0,70,70,70,,1,0,0.38921685500099557,stop,0.10000000000000002,1.224,2.2847831449990044,003,Scanner,R,2,2019_Sep_07_1121,SST,3.0.7,60.30245165187953,
go,sst_images/Left_Arrow.bmp,None,1,1160,None,0,71,71,71,,1,1,0.5005978490007692,go,0.10000000000000002,1.16,2.16,003,Scanner,R,2,2019_Sep_07_1121,SST,3.0.7,60.30245165187953,
go,sst_images/Right_Arrow.bmp,None,2,715,None,0,72,72,72,,2,1,0.39174466200347524,go,0.10000000000000002,0.715,1.7149999999999999,003,Scanner,R,2,2019_Sep_07_1121,SST,3.0.7,60.30245165187953,
go,sst_images/Left_Arrow.bmp,None,1,1355,None,0,73,73,73,,1,1,0.3414782740001101,go,0.10000000000000002,1.355,2.355,003,Scanner,R,2,2019_Sep_07_1121,SST,3.0.7,60.30245165187953,
go,sst_images/Right_Arrow.bmp,None,2,708,None,0,74,74,74,,2,1,0.5263754490006249,go,0.10000000000000002,0.708,1.708,003,Scanner,R,2,2019_Sep_07_1121,SST,3.0.7,60.30245165187953,
stop,sst_images/Right_Arrow.bmp,sst_images/Stop_Arrow.bmp,none,789,None,0,75,75,75,,None,1,,stop,0.15000000000000002,0.789,1.7890000000000001,003,Scanner,R,2,2019_Sep_07_1121,SST,3.0.7,60.30245165187953,
go,sst_images/Right_Arrow.bmp,None,2,972,None,0,76,76,76,,2,1,0.4761613330047112,go,0.15000000000000002,0.972,1.972,003,Scanner,R,2,2019_Sep_07_1121,SST,3.0.7,60.30245165187953,
go,sst_images/Left_Arrow.bmp,None,1,988,None,0,77,77,77,,1,1,0.3078482260025339,go,0.15000000000000002,0.988,1.988,003,Scanner,R,2,2019_Sep_07_1121,SST,3.0.7,60.30245165187953,
go,sst_images/Left_Arrow.bmp,None,1,1016,None,0,78,78,78,,1,1,0.5393511660004151,go,0.15000000000000002,1.016,2.016,003,Scanner,R,2,2019_Sep_07_1121,SST,3.0.7,60.30245165187953,
go,sst_images/Right_Arrow.bmp,None,2,817,None,0,79,79,79,,2,1,0.38599334900209215,go,0.15000000000000002,0.817,1.817,003,Scanner,R,2,2019_Sep_07_1121,SST,3.0.7,60.30245165187953,
go,sst_images/Right_Arrow.bmp,None,2,1079,None,0,80,80,80,,1,0,0.29207688600581605,go,0.15000000000000002,1.079,2.0789999999999997,003,Scanner,R,2,2019_Sep_07_1121,SST,3.0.7,60.30245165187953,
stop,sst_images/Right_Arrow.bmp,sst_images/Stop_Arrow.bmp,none,1042,None,0,81,81,81,,None,1,,stop,0.2,1.042,2.042,003,Scanner,R,2,2019_Sep_07_1121,SST,3.0.7,60.30245165187953,
go,sst_images/Right_Arrow.bmp,None,2,1224,None,0,82,82,82,,2,1,0.5081991379993269,go,0.2,1.224,2.224,003,Scanner,R,2,2019_Sep_07_1121,SST,3.0.7,60.30245165187953,
go,sst_images/Left_Arrow.bmp,None,1,1139,None,0,83,83,83,,1,1,0.39029674700577743,go,0.2,1.139,2.1390000000000002,003,Scanner,R,2,2019_Sep_07_1121,SST,3.0.7,60.30245165187953,
go,sst_images/Left_Arrow.bmp,None,1,830,None,0,84,84,84,,1,1,0.4846303989979788,go,0.2,0.83,1.83,003,Scanner,R,2,2019_Sep_07_1121,SST,3.0.7,60.30245165187953,
go,sst_images/Right_Arrow.bmp,None,2,736,None,0,85,85,85,,2,1,0.4717796730037662,go,0.2,0.736,1.736,003,Scanner,R,2,2019_Sep_07_1121,SST,3.0.7,60.30245165187953,
go,sst_images/Left_Arrow.bmp,None,1,877,None,0,86,86,86,,1,1,0.46980334899853915,go,0.2,0.877,1.877,003,Scanner,R,2,2019_Sep_07_1121,SST,3.0.7,60.30245165187953,
go,sst_images/Right_Arrow.bmp,None,2,737,None,0,87,87,87,,2,1,0.34095164199970895,go,0.2,0.737,1.737,003,Scanner,R,2,2019_Sep_07_1121,SST,3.0.7,60.30245165187953,
stop,sst_images/Left_Arrow.bmp,sst_images/Stop_Arrow.bmp,none,900,None,0,88,88,88,,1,0,0.352049793000333,stop,0.15000000000000002,0.9,2.047950206999667,003,Scanner,R,2,2019_Sep_07_1121,SST,3.0.7,60.30245165187953,
go,sst_images/Left_Arrow.bmp,None,1,1427,None,0,89,89,89,,1,1,0.6194384949994856,go,0.15000000000000002,1.427,2.427,003,Scanner,R,2,2019_Sep_07_1121,SST,3.0.7,60.30245165187953,
go,sst_images/Right_Arrow.bmp,None,2,807,None,0,90,90,90,,2,1,0.303958774995408,go,0.15000000000000002,0.807,1.807,003,Scanner,R,2,2019_Sep_07_1121,SST,3.0.7,60.30245165187953,
go,sst_images/Left_Arrow.bmp,None,1,864,None,0,91,91,91,,1,1,0.35406250200321665,go,0.15000000000000002,0.864,1.8639999999999999,003,Scanner,R,2,2019_Sep_07_1121,SST,3.0.7,60.30245165187953,
go,sst_images/Left_Arrow.bmp,None,1,751,None,0,92,92,92,,1,1,0.48955260200455086,go,0.15000000000000002,0.751,1.751,003,Scanner,R,2,2019_Sep_07_1121,SST,3.0.7,60.30245165187953,
stop,sst_images/Right_Arrow.bmp,sst_images/Stop_Arrow.bmp,none,781,None,0,93,93,93,,None,1,,stop,0.2,0.781,1.781,003,Scanner,R,2,2019_Sep_07_1121,SST,3.0.7,60.30245165187953,
go,sst_images/Left_Arrow.bmp,None,1,759,None,0,94,94,94,,1,1,0.42037500200240174,go,0.2,0.759,1.759,003,Scanner,R,2,2019_Sep_07_1121,SST,3.0.7,60.30245165187953,
go,sst_images/Right_Arrow.bmp,None,2,885,None,0,95,95,95,,2,1,0.419973238997045,go,0.2,0.885,1.885,003,Scanner,R,2,2019_Sep_07_1121,SST,3.0.7,60.30245165187953,
go,sst_images/Left_Arrow.bmp,None,1,941,None,0,96,96,96,,1,1,0.33432461200573016,go,0.2,0.941,1.9409999999999998,003,Scanner,R,2,2019_Sep_07_1121,SST,3.0.7,60.30245165187953,
go,sst_images/Right_Arrow.bmp,None,2,1090,None,0,97,97,97,,2,1,0.35427359500317834,go,0.2,1.09,2.09,003,Scanner,R,2,2019_Sep_07_1121,SST,3.0.7,60.30245165187953,
go,sst_images/Right_Arrow.bmp,None,2,948,None,0,98,98,98,,2,1,0.5035475900003803,go,0.2,0.948,1.948,003,Scanner,R,2,2019_Sep_07_1121,SST,3.0.7,60.30245165187953,
go,sst_images/Left_Arrow.bmp,None,1,856,None,0,99,99,99,,1,1,0.4558118019995163,go,0.2,0.856,1.8559999999999999,003,Scanner,R,2,2019_Sep_07_1121,SST,3.0.7,60.30245165187953,
go,sst_images/Right_Arrow.bmp,None,2,957,None,0,100,100,100,,2,1,0.3094524110056227,go,0.2,0.957,1.9569999999999999,003,Scanner,R,2,2019_Sep_07_1121,SST,3.0.7,60.30245165187953,
go,sst_images/Right_Arrow.bmp,None,2,1100,None,0,101,101,101,,2,1,0.45565433500451036,go,0.2,1.1,2.1,003,Scanner,R,2,2019_Sep_07_1121,SST,3.0.7,60.30245165187953,
go,sst_images/Left_Arrow.bmp,None,1,799,None,0,102,102,102,,1,1,0.5562008400011109,go,0.2,0.799,1.799,003,Scanner,R,2,2019_Sep_07_1121,SST,3.0.7,60.30245165187953,
go,sst_images/Left_Arrow.bmp,None,1,842,None,0,103,103,103,,1,1,0.4550851070016506,go,0.2,0.842,1.842,003,Scanner,R,2,2019_Sep_07_1121,SST,3.0.7,60.30245165187953,
stop,sst_images/Right_Arrow.bmp,sst_images/Stop_Arrow.bmp,none,904,None,0,104,104,104,,2,0,0.3203018019994488,stop,0.15000000000000002,0.904,2.083698198000551,003,Scanner,R,2,2019_Sep_07_1121,SST,3.0.7,60.30245165187953,
go,sst_images/Right_Arrow.bmp,None,2,900,None,0,105,105,105,,2,1,0.5036257800020394,go,0.15000000000000002,0.9,1.9,003,Scanner,R,2,2019_Sep_07_1121,SST,3.0.7,60.30245165187953,
go,sst_images/Right_Arrow.bmp,None,2,798,None,0,106,106,106,,2,1,0.487589347998437,go,0.15000000000000002,0.798,1.798,003,Scanner,R,2,2019_Sep_07_1121,SST,3.0.7,60.30245165187953,
go,sst_images/Left_Arrow.bmp,None,1,1028,None,0,107,107,107,,1,1,0.6556838350006728,go,0.15000000000000002,1.028,2.028,003,Scanner,R,2,2019_Sep_07_1121,SST,3.0.7,60.30245165187953,
go,sst_images/Right_Arrow.bmp,None,2,1006,None,0,108,108,108,,2,1,0.32055134599795565,go,0.15000000000000002,1.006,2.0060000000000002,003,Scanner,R,2,2019_Sep_07_1121,SST,3.0.7,60.30245165187953,
go,sst_images/Left_Arrow.bmp,None,1,881,None,0,109,109,109,,1,1,0.3576059030019678,go,0.15000000000000002,0.881,1.881,003,Scanner,R,2,2019_Sep_07_1121,SST,3.0.7,60.30245165187953,
go,sst_images/Right_Arrow.bmp,None,2,774,None,0,110,110,110,,2,1,0.4051932740039774,go,0.15000000000000002,0.774,1.774,003,Scanner,R,2,2019_Sep_07_1121,SST,3.0.7,60.30245165187953,
go,sst_images/Left_Arrow.bmp,None,1,827,None,0,111,111,111,,1,1,0.4050193120056065,go,0.15000000000000002,0.827,1.827,003,Scanner,R,2,2019_Sep_07_1121,SST,3.0.7,60.30245165187953,
go,sst_images/Right_Arrow.bmp,None,2,746,None,0,112,112,112,,2,1,0.47106263900059275,go,0.15000000000000002,0.746,1.746,003,Scanner,R,2,2019_Sep_07_1121,SST,3.0.7,60.30245165187953,
stop,sst_images/Left_Arrow.bmp,sst_images/Stop_Arrow.bmp,none,768,None,0,113,113,113,,1,0,0.3522237919969484,stop,0.10000000000000002,0.768,1.8657762080030518,003,Scanner,R,2,2019_Sep_07_1121,SST,3.0.7,60.30245165187953,
go,sst_images/Left_Arrow.bmp,None,1,745,None,0,114,114,114,,2,0,0.3206829589980771,go,0.10000000000000002,0.745,1.745,003,Scanner,R,2,2019_Sep_07_1121,SST,3.0.7,60.30245165187953,
go,sst_images/Right_Arrow.bmp,None,2,1831,None,0,115,115,115,,2,1,0.5538353890005965,go,0.10000000000000002,1.831,2.831,003,Scanner,R,2,2019_Sep_07_1121,SST,3.0.7,60.30245165187953,
go,sst_images/Left_Arrow.bmp,None,1,981,None,0,116,116,116,,1,1,0.4845795100045507,go,0.10000000000000002,0.981,1.9809999999999999,003,Scanner,R,2,2019_Sep_07_1121,SST,3.0.7,60.30245165187953,
go,sst_images/Right_Arrow.bmp,None,2,778,None,0,117,117,117,,2,1,0.3871282210020581,go,0.10000000000000002,0.778,1.778,003,Scanner,R,2,2019_Sep_07_1121,SST,3.0.7,60.30245165187953,
go,sst_images/Left_Arrow.bmp,None,1,1337,None,0,118,118,118,,1,1,0.34265556299942546,go,0.10000000000000002,1.337,2.3369999999999997,003,Scanner,R,2,2019_Sep_07_1121,SST,3.0.7,60.30245165187953,
stop,sst_images/Left_Arrow.bmp,sst_images/Stop_Arrow.bmp,none,861,None,0,119,119,119,,None,1,,stop,0.15000000000000002,0.861,1.861,003,Scanner,R,2,2019_Sep_07_1121,SST,3.0.7,60.30245165187953,
go,sst_images/Right_Arrow.bmp,None,2,988,None,0,120,120,120,,2,1,0.3875874350051163,go,0.15000000000000002,0.988,1.988,003,Scanner,R,2,2019_Sep_07_1121,SST,3.0.7,60.30245165187953,
go,sst_images/Right_Arrow.bmp,None,2,757,None,0,121,121,121,,2,1,0.48886816799495136,go,0.15000000000000002,0.757,1.7570000000000001,003,Scanner,R,2,2019_Sep_07_1121,SST,3.0.7,60.30245165187953,
stop,sst_images/Right_Arrow.bmp,sst_images/Stop_Arrow.bmp,none,842,None,0,122,122,122,,2,0,0.4202015990013024,stop,0.10000000000000002,0.842,1.8717984009986977,003,Scanner,R,2,2019_Sep_07_1121,SST,3.0.7,60.30245165187953,
go,sst_images/Left_Arrow.bmp,None,1,730,None,0,123,123,123,,1,1,0.4045184810020146,go,0.10000000000000002,0.73,1.73,003,Scanner,R,2,2019_Sep_07_1121,SST,3.0.7,60.30245165187953,
go,sst_images/Left_Arrow.bmp,None,1,747,None,0,124,124,124,,1,1,0.5709578349997173,go,0.10000000000000002,0.747,1.7469999999999999,003,Scanner,R,2,2019_Sep_07_1121,SST,3.0.7,60.30245165187953,
go,sst_images/Left_Arrow.bmp,None,1,948,None,0,125,125,125,,1,1,0.5028135070024291,go,0.10000000000000002,0.948,1.948,003,Scanner,R,2,2019_Sep_07_1121,SST,3.0.7,60.30245165187953,
go,sst_images/Right_Arrow.bmp,None,2,867,None,0,126,126,126,,2,1,0.4878803589963354,go,0.10000000000000002,0.867,1.867,003,Scanner,R,2,2019_Sep_07_1121,SST,3.0.7,60.30245165187953,
go,sst_images/Left_Arrow.bmp,None,1,979,None,0,127,127,127,,1,1,0.4869330009969417,go,0.10000000000000002,0.979,1.979,003,Scanner,R,2,2019_Sep_07_1121,SST,3.0.7,60.30245165187953,
stop,sst_images/Left_Arrow.bmp,sst_images/Stop_Arrow.bmp,none,812,None,0,128,128,128,,None,1,,stop,0.15000000000000002,0.812,1.812,003,Scanner,R,2,2019_Sep_07_1121,SST,3.0.7,60.30245165187953,
go,sst_images/Left_Arrow.bmp,None,1,997,None,0,129,129,129,,1,1,0.5387458950062864,go,0.15000000000000002,0.997,1.9969999999999999,003,Scanner,R,2,2019_Sep_07_1121,SST,3.0.7,60.30245165187953,
go,sst_images/Left_Arrow.bmp,None,1,848,None,0,130,130,130,,1,1,0.40341553300095256,go,0.15000000000000002,0.848,1.8479999999999999,003,Scanner,R,2,2019_Sep_07_1121,SST,3.0.7,60.30245165187953,
go,sst_images/Right_Arrow.bmp,None,2,818,None,0,131,131,131,,2,1,0.4036532669997541,go,0.15000000000000002,0.818,1.818,003,Scanner,R,2,2019_Sep_07_1121,SST,3.0.7,60.30245165187953,
stop,sst_images/Left_Arrow.bmp,sst_images/Stop_Arrow.bmp,none,743,None,0,132,132,132,,1,0,0.3354548729985254,stop,0.10000000000000002,0.743,1.8575451270014744,003,Scanner,R,2,2019_Sep_07_1121,SST,3.0.7,60.30245165187953,
go,sst_images/Left_Arrow.bmp,None,1,965,None,0,133,133,133,,1,1,0.435517929996422,go,0.10000000000000002,0.965,1.9649999999999999,003,Scanner,R,2,2019_Sep_07_1121,SST,3.0.7,60.30245165187953,
go,sst_images/Left_Arrow.bmp,None,1,758,None,0,134,134,134,,1,1,0.3860556709987577,go,0.10000000000000002,0.758,1.758,003,Scanner,R,2,2019_Sep_07_1121,SST,3.0.7,60.30245165187953,
stop,sst_images/Right_Arrow.bmp,sst_images/Stop_Arrow.bmp,none,746,None,0,135,135,135,,None,1,,stop,0.15000000000000002,0.746,1.7460000000000002,003,Scanner,R,2,2019_Sep_07_1121,SST,3.0.7,60.30245165187953,
go,sst_images/Right_Arrow.bmp,None,2,811,None,0,136,136,136,,2,1,0.5352913370006718,go,0.15000000000000002,0.811,1.811,003,Scanner,R,2,2019_Sep_07_1121,SST,3.0.7,60.30245165187953,
go,sst_images/Right_Arrow.bmp,None,2,771,None,0,137,137,137,,2,1,0.437085276003927,go,0.15000000000000002,0.771,1.771,003,Scanner,R,2,2019_Sep_07_1121,SST,3.0.7,60.30245165187953,
stop,sst_images/Left_Arrow.bmp,sst_images/Stop_Arrow.bmp,none,702,None,0,138,138,138,,None,1,,stop,0.2,0.702,1.7019999999999997,003,Scanner,R,2,2019_Sep_07_1121,SST,3.0.7,60.30245165187953,
go,sst_images/Left_Arrow.bmp,None,1,1050,None,0,139,139,139,,1,1,0.5545146970034693,go,0.2,1.05,2.05,003,Scanner,R,2,2019_Sep_07_1121,SST,3.0.7,60.30245165187953,
go,sst_images/Right_Arrow.bmp,None,2,743,None,0,140,140,140,,2,1,0.43702105400006985,go,0.2,0.743,1.7429999999999999,003,Scanner,R,2,2019_Sep_07_1121,SST,3.0.7,60.30245165187953,
go,sst_images/Left_Arrow.bmp,None,1,746,None,0,141,141,141,,1,1,0.4394103710001218,go,0.2,0.746,1.746,003,Scanner,R,2,2019_Sep_07_1121,SST,3.0.7,60.30245165187953,
stop,sst_images/Right_Arrow.bmp,sst_images/Stop_Arrow.bmp,none,720,None,0,142,142,142,,2,0,0.286376674004714,stop,0.15000000000000002,0.72,1.933623325995286,003,Scanner,R,2,2019_Sep_07_1121,SST,3.0.7,60.30245165187953,
go,sst_images/Left_Arrow.bmp,None,1,739,None,0,143,143,143,,1,1,0.3218382720006048,go,0.15000000000000002,0.739,1.7389999999999999,003,Scanner,R,2,2019_Sep_07_1121,SST,3.0.7,60.30245165187953,
go,sst_images/Right_Arrow.bmp,None,2,930,None,0,144,144,144,,2,1,0.3859140330023365,go,0.15000000000000002,0.93,1.9300000000000002,003,Scanner,R,2,2019_Sep_07_1121,SST,3.0.7,60.30245165187953,
go,sst_images/Left_Arrow.bmp,None,1,1691,None,0,145,145,145,,1,1,0.303487936995225,go,0.15000000000000002,1.691,2.691,003,Scanner,R,2,2019_Sep_07_1121,SST,3.0.7,60.30245165187953,
go,sst_images/Right_Arrow.bmp,None,2,768,None,0,146,146,146,,2,1,0.365082219002943,go,0.15000000000000002,0.768,1.768,003,Scanner,R,2,2019_Sep_07_1121,SST,3.0.7,60.30245165187953,
go,sst_images/Left_Arrow.bmp,None,1,2000,None,0,147,147,147,,1,1,0.5307448750027106,go,0.15000000000000002,2.0,3.0,003,Scanner,R,2,2019_Sep_07_1121,SST,3.0.7,60.30245165187953,
go,sst_images/Right_Arrow.bmp,None,2,811,None,0,148,148,148,,2,1,0.4035354229999939,go,0.15000000000000002,0.811,1.811,003,Scanner,R,2,2019_Sep_07_1121,SST,3.0.7,60.30245165187953,
stop,sst_images/Right_Arrow.bmp,sst_images/Stop_Arrow.bmp,none,730,None,0,149,149,149,,2,0,0.36764822700206423,stop,0.10000000000000002,0.73,1.8123517729979357,003,Scanner,R,2,2019_Sep_07_1121,SST,3.0.7,60.30245165187953,
go,sst_images/Right_Arrow.bmp,None,2,729,None,0,150,150,150,,2,1,0.48451724000187824,go,0.10000000000000002,0.729,1.729,003,Scanner,R,2,2019_Sep_07_1121,SST,3.0.7,60.30245165187953,
go,sst_images/Left_Arrow.bmp,None,1,741,None,0,151,151,151,,1,1,0.5548172440030612,go,0.10000000000000002,0.741,1.741,003,Scanner,R,2,2019_Sep_07_1121,SST,3.0.7,60.30245165187953,
go,sst_images/Right_Arrow.bmp,None,2,863,None,0,152,152,152,,2,1,0.45462767799472203,go,0.10000000000000002,0.863,1.863,003,Scanner,R,2,2019_Sep_07_1121,SST,3.0.7,60.30245165187953,
go,sst_images/Left_Arrow.bmp,None,1,781,None,0,153,153,153,,1,1,0.4929851260021678,go,0.10000000000000002,0.781,1.7810000000000001,003,Scanner,R,2,2019_Sep_07_1121,SST,3.0.7,60.30245165187953,
stop,sst_images/Left_Arrow.bmp,sst_images/Stop_Arrow.bmp,none,797,None,0,154,154,154,,None,1,,stop,0.15000000000000002,0.797,1.7970000000000002,003,Scanner,R,2,2019_Sep_07_1121,SST,3.0.7,60.30245165187953,
go,sst_images/Right_Arrow.bmp,None,2,725,None,0,155,155,155,,2,1,0.35342474299977766,go,0.15000000000000002,0.725,1.725,003,Scanner,R,2,2019_Sep_07_1121,SST,3.0.7,60.30245165187953,
go,sst_images/Left_Arrow.bmp,None,1,1040,None,0,156,156,156,,1,1,0.4684592560006422,go,0.15000000000000002,1.04,2.04,003,Scanner,R,2,2019_Sep_07_1121,SST,3.0.7,60.30245165187953,
stop,sst_images/Left_Arrow.bmp,sst_images/Stop_Arrow.bmp,none,726,None,0,157,157,157,,None,1,,stop,0.2,0.726,1.7259999999999998,003,Scanner,R,2,2019_Sep_07_1121,SST,3.0.7,60.30245165187953,
go,sst_images/Right_Arrow.bmp,None,2,759,None,0,158,158,158,,2,1,0.5214699190037209,go,0.2,0.759,1.759,003,Scanner,R,2,2019_Sep_07_1121,SST,3.0.7,60.30245165187953,
go,sst_images/Left_Arrow.bmp,None,1,816,None,0,159,159,159,,1,1,0.4859835879979073,go,0.2,0.816,1.8159999999999998,003,Scanner,R,2,2019_Sep_07_1121,SST,3.0.7,60.30245165187953,
go,sst_images/Left_Arrow.bmp,None,1,706,None,0,160,160,160,,1,1,0.5023670970040257,go,0.2,0.706,1.706,003,Scanner,R,2,2019_Sep_07_1121,SST,3.0.7,60.30245165187953,
go,sst_images/Right_Arrow.bmp,None,2,997,None,0,161,161,161,,2,1,0.4382531560040661,go,0.2,0.997,1.9969999999999999,003,Scanner,R,2,2019_Sep_07_1121,SST,3.0.7,60.30245165187953,
go,sst_images/Left_Arrow.bmp,None,1,1279,None,0,162,162,162,,1,1,0.40369079600350233,go,0.2,1.279,2.279,003,Scanner,R,2,2019_Sep_07_1121,SST,3.0.7,60.30245165187953,
go,sst_images/Right_Arrow.bmp,None,2,887,None,0,163,163,163,,2,1,0.45328834699466825,go,0.2,0.887,1.887,003,Scanner,R,2,2019_Sep_07_1121,SST,3.0.7,60.30245165187953,
go,sst_images/Right_Arrow.bmp,None,2,880,None,0,164,164,164,,2,1,0.4711773480012198,go,0.2,0.88,1.88,003,Scanner,R,2,2019_Sep_07_1121,SST,3.0.7,60.30245165187953,
go,sst_images/Right_Arrow.bmp,None,2,1248,None,0,165,165,165,,2,1,0.38792232100240653,go,0.2,1.248,2.248,003,Scanner,R,2,2019_Sep_07_1121,SST,3.0.7,60.30245165187953,
go,sst_images/Left_Arrow.bmp,None,1,863,None,0,166,166,166,,1,1,0.5881417450000299,go,0.2,0.863,1.863,003,Scanner,R,2,2019_Sep_07_1121,SST,3.0.7,60.30245165187953,
go,sst_images/Right_Arrow.bmp,None,2,850,None,0,167,167,167,,2,1,0.5551283110035001,go,0.2,0.85,1.85,003,Scanner,R,2,2019_Sep_07_1121,SST,3.0.7,60.30245165187953,
stop,sst_images/Left_Arrow.bmp,sst_images/Stop_Arrow.bmp,none,1050,None,0,168,168,168,,1,0,0.435884182996233,stop,0.15000000000000002,1.05,2.114115817003767,003,Scanner,R,2,2019_Sep_07_1121,SST,3.0.7,60.30245165187953,
go,sst_images/Right_Arrow.bmp,None,2,967,None,0,169,169,169,,2,1,0.46993023700633785,go,0.15000000000000002,0.967,1.967,003,Scanner,R,2,2019_Sep_07_1121,SST,3.0.7,60.30245165187953,
go,sst_images/Left_Arrow.bmp,None,1,924,None,0,170,170,170,,1,1,0.4381034030011506,go,0.15000000000000002,0.924,1.924,003,Scanner,R,2,2019_Sep_07_1121,SST,3.0.7,60.30245165187953,
go,sst_images/Right_Arrow.bmp,None,2,861,None,0,171,171,171,,2,1,0.36613357400347013,go,0.15000000000000002,0.861,1.861,003,Scanner,R,2,2019_Sep_07_1121,SST,3.0.7,60.30245165187953,
go,sst_images/Right_Arrow.bmp,None,2,781,None,0,172,172,172,,2,1,0.436550303005788,go,0.15000000000000002,0.781,1.7810000000000001,003,Scanner,R,2,2019_Sep_07_1121,SST,3.0.7,60.30245165187953,
go,sst_images/Right_Arrow.bmp,None,2,740,None,0,173,173,173,,2,1,0.4211775410003611,go,0.15000000000000002,0.74,1.74,003,Scanner,R,2,2019_Sep_07_1121,SST,3.0.7,60.30245165187953,
go,sst_images/Left_Arrow.bmp,None,1,727,None,0,174,174,174,,1,1,0.4601208649983164,go,0.15000000000000002,0.727,1.7269999999999999,003,Scanner,R,2,2019_Sep_07_1121,SST,3.0.7,60.30245165187953,
stop,sst_images/Right_Arrow.bmp,sst_images/Stop_Arrow.bmp,none,795,None,0,175,175,175,,None,1,,stop,0.2,0.795,1.7950000000000002,003,Scanner,R,2,2019_Sep_07_1121,SST,3.0.7,60.30245165187953,
go,sst_images/Right_Arrow.bmp,None,2,813,None,0,176,176,176,,2,1,0.5785731729993131,go,0.2,0.813,1.813,003,Scanner,R,2,2019_Sep_07_1121,SST,3.0.7,60.30245165187953,
go,sst_images/Left_Arrow.bmp,None,1,750,None,0,177,177,177,,1,1,0.4785782390026725,go,0.2,0.75,1.75,003,Scanner,R,2,2019_Sep_07_1121,SST,3.0.7,60.30245165187953,
stop,sst_images/Left_Arrow.bmp,sst_images/Stop_Arrow.bmp,none,740,None,0,178,178,178,,None,1,,stop,0.25,0.74,1.74,003,Scanner,R,2,2019_Sep_07_1121,SST,3.0.7,60.30245165187953,
go,sst_images/Right_Arrow.bmp,None,2,1094,5200.0,0,179,179,179,,2,1,0.4112821230010013,go,0.25,1.094,2.0940000000000003,003,Scanner,R,2,2019_Sep_07_1121,SST,3.0.7,60.30245165187953,
