trial_type,arrow_1,arrow_2,corrAns,jitter,run_end_fixation,trials.thisRepN,trials.thisTrialN,trials.thisN,trials.thisIndex,randomized TrialOrder,key_response.keys,key_response.corr,key_response.rt,trial_t.routineEndVal,ss_delay,iti_duration,SOA,participant,prac_or_scan,handedness,run,date,expName,psychopyVersion,frameRate,
go,sst_images/Left_Arrow.bmp,None,1,720,None,0,0,0,0,6,1,1,0.7789734590041917,go,0.05,0.72,1.72,0042,Scanner,L,1,2019_Aug_21_1246,SST,3.0.7,23.996998532300513,
go,sst_images/Right_Arrow.bmp,None,2,815,None,0,1,1,1,,2,1,0.506513927000924,go,0.05,0.815,1.815,0042,Scanner,L,1,2019_Aug_21_1246,SST,3.0.7,23.996998532300513,
go,sst_images/Right_Arrow.bmp,None,2,769,None,0,2,2,2,,2,1,0.6237941329891328,go,0.05,0.769,1.7690000000000001,0042,Scanner,L,1,2019_Aug_21_1246,SST,3.0.7,23.996998532300513,
go,sst_images/Left_Arrow.bmp,None,1,816,None,0,3,3,3,,1,1,0.49898866600415204,go,0.05,0.816,1.8159999999999998,0042,Scanner,L,1,2019_Aug_21_1246,SST,3.0.7,23.996998532300513,
stop,sst_images/Right_Arrow.bmp,sst_images/Stop_Arrow.bmp,none,721,None,0,4,4,4,,None,1,,stop,0.1,0.721,1.721,0042,Scanner,L,1,2019_Aug_21_1246,SST,3.0.7,23.996998532300513,
go,sst_images/Left_Arrow.bmp,None,1,888,None,0,5,5,5,,1,1,0.5002564710011939,go,0.1,0.888,1.888,0042,Scanner,L,1,2019_Aug_21_1246,SST,3.0.7,23.996998532300513,
go,sst_images/Right_Arrow.bmp,None,2,900,None,0,6,6,6,,2,1,0.4620169810077641,go,0.1,0.9,1.9,0042,Scanner,L,1,2019_Aug_21_1246,SST,3.0.7,23.996998532300513,
go,sst_images/Left_Arrow.bmp,None,1,1264,None,0,7,7,7,,1,1,0.46450905299570877,go,0.1,1.264,2.2640000000000002,0042,Scanner,L,1,2019_Aug_21_1246,SST,3.0.7,23.996998532300513,
go,sst_images/Right_Arrow.bmp,None,2,744,None,0,8,8,8,,2,1,0.4246414340013871,go,0.1,0.744,1.744,0042,Scanner,L,1,2019_Aug_21_1246,SST,3.0.7,23.996998532300513,
go,sst_images/Right_Arrow.bmp,None,2,794,None,0,9,9,9,,2,1,0.6110767030040734,go,0.1,0.794,1.794,0042,Scanner,L,1,2019_Aug_21_1246,SST,3.0.7,23.996998532300513,
go,sst_images/Left_Arrow.bmp,None,1,901,None,0,10,10,10,,1,1,0.5435732449986972,go,0.1,0.901,1.901,0042,Scanner,L,1,2019_Aug_21_1246,SST,3.0.7,23.996998532300513,
go,sst_images/Right_Arrow.bmp,None,2,882,None,0,11,11,11,,2,1,0.5055036879930412,go,0.1,0.882,1.8820000000000001,0042,Scanner,L,1,2019_Aug_21_1246,SST,3.0.7,23.996998532300513,
go,sst_images/Left_Arrow.bmp,None,1,732,None,0,12,12,12,,1,1,0.534249810007168,go,0.1,0.732,1.732,0042,Scanner,L,1,2019_Aug_21_1246,SST,3.0.7,23.996998532300513,
go,sst_images/Left_Arrow.bmp,None,1,1173,None,0,13,13,13,,1,1,0.5764937749918317,go,0.1,1.173,2.173,0042,Scanner,L,1,2019_Aug_21_1246,SST,3.0.7,23.996998532300513,
stop,sst_images/Left_Arrow.bmp,sst_images/Stop_Arrow.bmp,none,1189,None,0,14,14,14,,None,1,,stop,0.15000000000000002,1.189,2.189,0042,Scanner,L,1,2019_Aug_21_1246,SST,3.0.7,23.996998532300513,
go,sst_images/Left_Arrow.bmp,None,1,755,None,0,15,15,15,,1,1,0.5004154669877607,go,0.15000000000000002,0.755,1.755,0042,Scanner,L,1,2019_Aug_21_1246,SST,3.0.7,23.996998532300513,
go,sst_images/Right_Arrow.bmp,None,2,806,None,0,16,16,16,,2,1,0.543201943000895,go,0.15000000000000002,0.806,1.806,0042,Scanner,L,1,2019_Aug_21_1246,SST,3.0.7,23.996998532300513,
stop,sst_images/Left_Arrow.bmp,sst_images/Stop_Arrow.bmp,none,924,None,0,17,17,17,,None,1,,stop,0.2,0.924,1.9240000000000002,0042,Scanner,L,1,2019_Aug_21_1246,SST,3.0.7,23.996998532300513,
go,sst_images/Left_Arrow.bmp,None,1,1139,None,0,18,18,18,,1,1,0.5040541350026615,go,0.2,1.139,2.1390000000000002,0042,Scanner,L,1,2019_Aug_21_1246,SST,3.0.7,23.996998532300513,
go,sst_images/Left_Arrow.bmp,None,1,725,None,0,19,19,19,,1,1,0.49950895700021647,go,0.2,0.725,1.725,0042,Scanner,L,1,2019_Aug_21_1246,SST,3.0.7,23.996998532300513,
go,sst_images/Right_Arrow.bmp,None,2,974,None,0,20,20,20,,2,1,0.5353304910095176,go,0.2,0.974,1.974,0042,Scanner,L,1,2019_Aug_21_1246,SST,3.0.7,23.996998532300513,
stop,sst_images/Right_Arrow.bmp,sst_images/Stop_Arrow.bmp,none,729,None,0,21,21,21,,2,0,0.5262229420040967,stop,0.15000000000000002,0.729,1.7027770579959034,0042,Scanner,L,1,2019_Aug_21_1246,SST,3.0.7,23.996998532300513,
go,sst_images/Left_Arrow.bmp,None,1,744,None,0,22,22,22,,1,1,0.5056279030104633,go,0.15000000000000002,0.744,1.744,0042,Scanner,L,1,2019_Aug_21_1246,SST,3.0.7,23.996998532300513,
go,sst_images/Right_Arrow.bmp,None,2,1598,None,0,23,23,23,,2,1,0.5038949939917075,go,0.15000000000000002,1.598,2.598,0042,Scanner,L,1,2019_Aug_21_1246,SST,3.0.7,23.996998532300513,
go,sst_images/Left_Arrow.bmp,None,1,992,None,0,24,24,24,,1,1,0.42452506099652965,go,0.15000000000000002,0.992,1.992,0042,Scanner,L,1,2019_Aug_21_1246,SST,3.0.7,23.996998532300513,
go,sst_images/Right_Arrow.bmp,None,2,1022,None,0,25,25,25,,2,1,0.5882267970009707,go,0.15000000000000002,1.022,2.0220000000000002,0042,Scanner,L,1,2019_Aug_21_1246,SST,3.0.7,23.996998532300513,
stop,sst_images/Right_Arrow.bmp,sst_images/Stop_Arrow.bmp,none,929,None,0,26,26,26,,None,1,,stop,0.2,0.929,1.929,0042,Scanner,L,1,2019_Aug_21_1246,SST,3.0.7,23.996998532300513,
go,sst_images/Right_Arrow.bmp,None,2,1590,None,0,27,27,27,,2,1,0.5451689309993526,go,0.2,1.59,2.59,0042,Scanner,L,1,2019_Aug_21_1246,SST,3.0.7,23.996998532300513,
go,sst_images/Left_Arrow.bmp,None,1,1317,None,0,28,28,28,,1,1,0.3769562179950299,go,0.2,1.317,2.317,0042,Scanner,L,1,2019_Aug_21_1246,SST,3.0.7,23.996998532300513,
go,sst_images/Right_Arrow.bmp,None,2,832,None,0,29,29,29,,2,1,0.5020259680022718,go,0.2,0.832,1.8319999999999999,0042,Scanner,L,1,2019_Aug_21_1246,SST,3.0.7,23.996998532300513,
go,sst_images/Right_Arrow.bmp,None,2,956,None,0,30,30,30,,2,1,0.4657940400065854,go,0.2,0.956,1.956,0042,Scanner,L,1,2019_Aug_21_1246,SST,3.0.7,23.996998532300513,
go,sst_images/Left_Arrow.bmp,None,1,761,None,0,31,31,31,,1,1,0.5038772109983256,go,0.2,0.761,1.7610000000000001,0042,Scanner,L,1,2019_Aug_21_1246,SST,3.0.7,23.996998532300513,
go,sst_images/Right_Arrow.bmp,None,2,709,None,0,32,32,32,,2,1,0.4643253609974636,go,0.2,0.709,1.709,0042,Scanner,L,1,2019_Aug_21_1246,SST,3.0.7,23.996998532300513,
stop,sst_images/Left_Arrow.bmp,sst_images/Stop_Arrow.bmp,none,721,None,0,33,33,33,,1,0,0.4193114749941742,stop,0.15000000000000002,0.721,1.8016885250058259,0042,Scanner,L,1,2019_Aug_21_1246,SST,3.0.7,23.996998532300513,
go,sst_images/Left_Arrow.bmp,None,1,785,None,0,34,34,34,,1,1,0.5892097559990361,go,0.15000000000000002,0.785,1.7850000000000001,0042,Scanner,L,1,2019_Aug_21_1246,SST,3.0.7,23.996998532300513,
go,sst_images/Left_Arrow.bmp,None,1,1022,None,0,35,35,35,,1,1,0.4957553679996636,go,0.15000000000000002,1.022,2.0220000000000002,0042,Scanner,L,1,2019_Aug_21_1246,SST,3.0.7,23.996998532300513,
go,sst_images/Right_Arrow.bmp,None,2,2000,None,0,36,36,36,,2,1,0.4504355470126029,go,0.15000000000000002,2.0,3.0,0042,Scanner,L,1,2019_Aug_21_1246,SST,3.0.7,23.996998532300513,
go,sst_images/Right_Arrow.bmp,None,2,749,None,0,37,37,37,,2,1,0.49057278099644464,go,0.15000000000000002,0.749,1.749,0042,Scanner,L,1,2019_Aug_21_1246,SST,3.0.7,23.996998532300513,
go,sst_images/Left_Arrow.bmp,None,1,826,None,0,38,38,38,,1,1,0.6273855459876359,go,0.15000000000000002,0.826,1.826,0042,Scanner,L,1,2019_Aug_21_1246,SST,3.0.7,23.996998532300513,
go,sst_images/Left_Arrow.bmp,None,1,722,None,0,39,39,39,,1,1,0.5842037500115111,go,0.15000000000000002,0.722,1.722,0042,Scanner,L,1,2019_Aug_21_1246,SST,3.0.7,23.996998532300513,
go,sst_images/Right_Arrow.bmp,None,2,749,None,0,40,40,40,,2,1,0.5404549560043961,go,0.15000000000000002,0.749,1.749,0042,Scanner,L,1,2019_Aug_21_1246,SST,3.0.7,23.996998532300513,
go,sst_images/Left_Arrow.bmp,None,1,846,None,0,41,41,41,,1,1,0.4204407670040382,go,0.15000000000000002,0.846,1.846,0042,Scanner,L,1,2019_Aug_21_1246,SST,3.0.7,23.996998532300513,
go,sst_images/Left_Arrow.bmp,None,1,792,None,0,42,42,42,,1,1,0.5446532179921633,go,0.15000000000000002,0.792,1.792,0042,Scanner,L,1,2019_Aug_21_1246,SST,3.0.7,23.996998532300513,
stop,sst_images/Right_Arrow.bmp,sst_images/Stop_Arrow.bmp,none,775,None,0,43,43,43,,None,1,,stop,0.2,0.775,1.7750000000000001,0042,Scanner,L,1,2019_Aug_21_1246,SST,3.0.7,23.996998532300513,
go,sst_images/Right_Arrow.bmp,None,2,733,None,0,44,44,44,,2,1,0.5041597030067351,go,0.2,0.733,1.733,0042,Scanner,L,1,2019_Aug_21_1246,SST,3.0.7,23.996998532300513,
go,sst_images/Right_Arrow.bmp,None,2,723,None,0,45,45,45,,2,1,0.5009756590006873,go,0.2,0.723,1.7229999999999999,0042,Scanner,L,1,2019_Aug_21_1246,SST,3.0.7,23.996998532300513,
go,sst_images/Right_Arrow.bmp,None,2,916,None,0,46,46,46,,2,1,0.5060547839966603,go,0.2,0.916,1.916,0042,Scanner,L,1,2019_Aug_21_1246,SST,3.0.7,23.996998532300513,
stop,sst_images/Right_Arrow.bmp,sst_images/Stop_Arrow.bmp,none,851,None,0,47,47,47,,2,0,0.5067752689938061,stop,0.15000000000000002,0.851,1.8442247310061939,0042,Scanner,L,1,2019_Aug_21_1246,SST,3.0.7,23.996998532300513,
go,sst_images/Left_Arrow.bmp,None,1,744,None,0,48,48,48,,1,1,0.4599598060012795,go,0.15000000000000002,0.744,1.744,0042,Scanner,L,1,2019_Aug_21_1246,SST,3.0.7,23.996998532300513,
go,sst_images/Left_Arrow.bmp,None,1,2000,None,0,49,49,49,,1,1,0.496645104009076,go,0.15000000000000002,2.0,3.0,0042,Scanner,L,1,2019_Aug_21_1246,SST,3.0.7,23.996998532300513,
go,sst_images/Left_Arrow.bmp,None,1,1200,None,0,50,50,50,,1,1,0.5849479280004743,go,0.15000000000000002,1.2,2.2,0042,Scanner,L,1,2019_Aug_21_1246,SST,3.0.7,23.996998532300513,
go,sst_images/Right_Arrow.bmp,None,2,809,None,0,51,51,51,,2,1,0.5033002519921865,go,0.15000000000000002,0.809,1.8090000000000002,0042,Scanner,L,1,2019_Aug_21_1246,SST,3.0.7,23.996998532300513,
go,sst_images/Right_Arrow.bmp,None,2,790,None,0,52,52,52,,None,0,,go,0.15000000000000002,0.79,1.79,0042,Scanner,L,1,2019_Aug_21_1246,SST,3.0.7,23.996998532300513,
stop,sst_images/Left_Arrow.bmp,sst_images/Stop_Arrow.bmp,none,816,None,0,53,53,53,,None,1,,stop,0.2,0.816,1.816,0042,Scanner,L,1,2019_Aug_21_1246,SST,3.0.7,23.996998532300513,
go,sst_images/Left_Arrow.bmp,None,1,816,None,0,54,54,54,,1,1,0.5028802439919673,go,0.2,0.816,1.8159999999999998,0042,Scanner,L,1,2019_Aug_21_1246,SST,3.0.7,23.996998532300513,
go,sst_images/Left_Arrow.bmp,None,1,721,None,0,55,55,55,,1,1,0.46425620598893147,go,0.2,0.721,1.721,0042,Scanner,L,1,2019_Aug_21_1246,SST,3.0.7,23.996998532300513,
go,sst_images/Left_Arrow.bmp,None,1,1164,None,0,56,56,56,,1,1,0.5859479070059024,go,0.2,1.164,2.1639999999999997,0042,Scanner,L,1,2019_Aug_21_1246,SST,3.0.7,23.996998532300513,
go,sst_images/Right_Arrow.bmp,None,2,839,None,0,57,57,57,,2,1,0.6708470990124624,go,0.2,0.839,1.839,0042,Scanner,L,1,2019_Aug_21_1246,SST,3.0.7,23.996998532300513,
go,sst_images/Left_Arrow.bmp,None,1,761,None,0,58,58,58,,1,1,0.502815764004481,go,0.2,0.761,1.7610000000000001,0042,Scanner,L,1,2019_Aug_21_1246,SST,3.0.7,23.996998532300513,
stop,sst_images/Right_Arrow.bmp,sst_images/Stop_Arrow.bmp,none,886,None,0,59,59,59,,2,0,0.48441072800778784,stop,0.15000000000000002,0.886,1.9015892719922123,0042,Scanner,L,1,2019_Aug_21_1246,SST,3.0.7,23.996998532300513,
go,sst_images/Left_Arrow.bmp,None,1,805,None,0,60,60,60,,1,1,0.5481739490060136,go,0.15000000000000002,0.805,1.8050000000000002,0042,Scanner,L,1,2019_Aug_21_1246,SST,3.0.7,23.996998532300513,
stop,sst_images/Left_Arrow.bmp,sst_images/Stop_Arrow.bmp,none,976,None,0,61,61,61,,None,1,,stop,0.2,0.976,1.9759999999999998,0042,Scanner,L,1,2019_Aug_21_1246,SST,3.0.7,23.996998532300513,
go,sst_images/Right_Arrow.bmp,None,2,707,None,0,62,62,62,,2,1,0.501634827000089,go,0.2,0.707,1.7069999999999999,0042,Scanner,L,1,2019_Aug_21_1246,SST,3.0.7,23.996998532300513,
go,sst_images/Right_Arrow.bmp,None,2,927,None,0,63,63,63,,2,1,0.5018148660019506,go,0.2,0.927,1.927,0042,Scanner,L,1,2019_Aug_21_1246,SST,3.0.7,23.996998532300513,
go,sst_images/Left_Arrow.bmp,None,1,908,None,0,64,64,64,,1,1,0.544226925005205,go,0.2,0.908,1.908,0042,Scanner,L,1,2019_Aug_21_1246,SST,3.0.7,23.996998532300513,
stop,sst_images/Right_Arrow.bmp,sst_images/Stop_Arrow.bmp,none,852,None,0,65,65,65,,2,0,0.4440634200000204,stop,0.15000000000000002,0.852,1.9079365799999795,0042,Scanner,L,1,2019_Aug_21_1246,SST,3.0.7,23.996998532300513,
go,sst_images/Right_Arrow.bmp,None,2,1233,None,0,66,66,66,,2,1,0.5407783169939648,go,0.15000000000000002,1.233,2.233,0042,Scanner,L,1,2019_Aug_21_1246,SST,3.0.7,23.996998532300513,
go,sst_images/Left_Arrow.bmp,None,1,1097,None,0,67,67,67,,1,1,0.5769820260029519,go,0.15000000000000002,1.097,2.097,0042,Scanner,L,1,2019_Aug_21_1246,SST,3.0.7,23.996998532300513,
go,sst_images/Right_Arrow.bmp,None,2,772,None,0,68,68,68,,2,1,0.4624695999955293,go,0.15000000000000002,0.772,1.772,0042,Scanner,L,1,2019_Aug_21_1246,SST,3.0.7,23.996998532300513,
go,sst_images/Right_Arrow.bmp,None,2,841,None,0,69,69,69,,2,1,0.5440316879976308,go,0.15000000000000002,0.841,1.841,0042,Scanner,L,1,2019_Aug_21_1246,SST,3.0.7,23.996998532300513,
go,sst_images/Left_Arrow.bmp,None,1,803,None,0,70,70,70,,1,1,0.5049369079933967,go,0.15000000000000002,0.803,1.803,0042,Scanner,L,1,2019_Aug_21_1246,SST,3.0.7,23.996998532300513,
go,sst_images/Right_Arrow.bmp,None,2,791,None,0,71,71,71,,2,1,0.7970760050084209,go,0.15000000000000002,0.791,1.791,0042,Scanner,L,1,2019_Aug_21_1246,SST,3.0.7,23.996998532300513,
go,sst_images/Left_Arrow.bmp,None,1,790,None,0,72,72,72,,1,1,0.5023338179889834,go,0.15000000000000002,0.79,1.79,0042,Scanner,L,1,2019_Aug_21_1246,SST,3.0.7,23.996998532300513,
go,sst_images/Right_Arrow.bmp,None,2,1087,None,0,73,73,73,,2,1,0.4353505549952388,go,0.15000000000000002,1.087,2.0869999999999997,0042,Scanner,L,1,2019_Aug_21_1246,SST,3.0.7,23.996998532300513,
go,sst_images/Left_Arrow.bmp,None,1,817,None,0,74,74,74,,1,1,0.6712688609986799,go,0.15000000000000002,0.817,1.817,0042,Scanner,L,1,2019_Aug_21_1246,SST,3.0.7,23.996998532300513,
stop,sst_images/Right_Arrow.bmp,sst_images/Stop_Arrow.bmp,none,747,None,0,75,75,75,,None,1,,stop,0.2,0.747,1.747,0042,Scanner,L,1,2019_Aug_21_1246,SST,3.0.7,23.996998532300513,
go,sst_images/Right_Arrow.bmp,None,2,808,None,0,76,76,76,,2,1,0.46239876400795765,go,0.2,0.808,1.808,0042,Scanner,L,1,2019_Aug_21_1246,SST,3.0.7,23.996998532300513,
go,sst_images/Right_Arrow.bmp,None,2,1279,None,0,77,77,77,,2,1,0.6477581880026264,go,0.2,1.279,2.279,0042,Scanner,L,1,2019_Aug_21_1246,SST,3.0.7,23.996998532300513,
go,sst_images/Left_Arrow.bmp,None,1,759,None,0,78,78,78,,1,1,0.5451816889981274,go,0.2,0.759,1.759,0042,Scanner,L,1,2019_Aug_21_1246,SST,3.0.7,23.996998532300513,
go,sst_images/Left_Arrow.bmp,None,1,776,None,0,79,79,79,,1,1,0.5830139309982769,go,0.2,0.776,1.776,0042,Scanner,L,1,2019_Aug_21_1246,SST,3.0.7,23.996998532300513,
go,sst_images/Right_Arrow.bmp,None,2,746,None,0,80,80,80,,2,1,0.502593484998215,go,0.2,0.746,1.746,0042,Scanner,L,1,2019_Aug_21_1246,SST,3.0.7,23.996998532300513,
stop,sst_images/Left_Arrow.bmp,sst_images/Stop_Arrow.bmp,none,760,None,0,81,81,81,,None,1,,stop,0.25,0.76,1.76,0042,Scanner,L,1,2019_Aug_21_1246,SST,3.0.7,23.996998532300513,
go,sst_images/Right_Arrow.bmp,None,2,929,None,0,82,82,82,,2,1,0.507147422991693,go,0.25,0.929,1.929,0042,Scanner,L,1,2019_Aug_21_1246,SST,3.0.7,23.996998532300513,
go,sst_images/Right_Arrow.bmp,None,2,705,None,0,83,83,83,,2,1,0.5457528389961226,go,0.25,0.705,1.705,0042,Scanner,L,1,2019_Aug_21_1246,SST,3.0.7,23.996998532300513,
go,sst_images/Left_Arrow.bmp,None,1,1410,None,0,84,84,84,,1,1,0.6310873290058225,go,0.25,1.41,2.41,0042,Scanner,L,1,2019_Aug_21_1246,SST,3.0.7,23.996998532300513,
go,sst_images/Left_Arrow.bmp,None,1,1410,None,0,85,85,85,,1,1,0.6144303559995024,go,0.25,1.41,2.41,0042,Scanner,L,1,2019_Aug_21_1246,SST,3.0.7,23.996998532300513,
go,sst_images/Right_Arrow.bmp,None,2,766,None,0,86,86,86,,2,1,0.5037230849993648,go,0.25,0.766,1.766,0042,Scanner,L,1,2019_Aug_21_1246,SST,3.0.7,23.996998532300513,
go,sst_images/Left_Arrow.bmp,None,1,866,None,0,87,87,87,,1,1,0.5449389770074049,go,0.25,0.866,1.866,0042,Scanner,L,1,2019_Aug_21_1246,SST,3.0.7,23.996998532300513,
go,sst_images/Right_Arrow.bmp,None,2,820,None,0,88,88,88,,2,1,0.5469164800015278,go,0.25,0.82,1.8199999999999998,0042,Scanner,L,1,2019_Aug_21_1246,SST,3.0.7,23.996998532300513,
go,sst_images/Left_Arrow.bmp,None,1,894,None,0,89,89,89,,1,1,0.4620353070058627,go,0.25,0.894,1.8940000000000001,0042,Scanner,L,1,2019_Aug_21_1246,SST,3.0.7,23.996998532300513,
stop,sst_images/Right_Arrow.bmp,sst_images/Stop_Arrow.bmp,none,764,None,0,90,90,90,,2,0,0.48394328499853145,stop,0.2,0.764,1.8300567150014686,0042,Scanner,L,1,2019_Aug_21_1246,SST,3.0.7,23.996998532300513,
go,sst_images/Right_Arrow.bmp,None,2,1189,None,0,91,91,91,,2,1,0.5859577869996428,go,0.2,1.189,2.189,0042,Scanner,L,1,2019_Aug_21_1246,SST,3.0.7,23.996998532300513,
go,sst_images/Left_Arrow.bmp,None,1,852,None,0,92,92,92,,1,1,0.6287304500001483,go,0.2,0.852,1.8519999999999999,0042,Scanner,L,1,2019_Aug_21_1246,SST,3.0.7,23.996998532300513,
go,sst_images/Left_Arrow.bmp,None,1,1097,None,0,93,93,93,,1,1,0.626347719997284,go,0.2,1.097,2.097,0042,Scanner,L,1,2019_Aug_21_1246,SST,3.0.7,23.996998532300513,
stop,sst_images/Right_Arrow.bmp,sst_images/Stop_Arrow.bmp,none,710,None,0,94,94,94,,2,0,0.4542896109924186,stop,0.15000000000000002,0.71,1.7557103890075814,0042,Scanner,L,1,2019_Aug_21_1246,SST,3.0.7,23.996998532300513,
go,sst_images/Left_Arrow.bmp,None,1,765,None,0,95,95,95,,1,1,0.6287602219963446,go,0.15000000000000002,0.765,1.7650000000000001,0042,Scanner,L,1,2019_Aug_21_1246,SST,3.0.7,23.996998532300513,
go,sst_images/Right_Arrow.bmp,None,2,836,None,0,96,96,96,,2,1,0.755333953013178,go,0.15000000000000002,0.836,1.8359999999999999,0042,Scanner,L,1,2019_Aug_21_1246,SST,3.0.7,23.996998532300513,
go,sst_images/Left_Arrow.bmp,None,1,858,None,0,97,97,97,,1,1,0.5836920250003459,go,0.15000000000000002,0.858,1.858,0042,Scanner,L,1,2019_Aug_21_1246,SST,3.0.7,23.996998532300513,
go,sst_images/Right_Arrow.bmp,None,2,846,None,0,98,98,98,,2,1,0.5461354430008214,go,0.15000000000000002,0.846,1.846,0042,Scanner,L,1,2019_Aug_21_1246,SST,3.0.7,23.996998532300513,
go,sst_images/Right_Arrow.bmp,None,2,937,None,0,99,99,99,,2,1,0.5089654959883774,go,0.15000000000000002,0.937,1.937,0042,Scanner,L,1,2019_Aug_21_1246,SST,3.0.7,23.996998532300513,
stop,sst_images/Left_Arrow.bmp,sst_images/Stop_Arrow.bmp,none,761,None,0,100,100,100,,None,1,,stop,0.2,0.761,1.761,0042,Scanner,L,1,2019_Aug_21_1246,SST,3.0.7,23.996998532300513,
go,sst_images/Left_Arrow.bmp,None,1,745,None,0,101,101,101,,1,1,0.4627568750001956,go,0.2,0.745,1.745,0042,Scanner,L,1,2019_Aug_21_1246,SST,3.0.7,23.996998532300513,
go,sst_images/Right_Arrow.bmp,None,2,1538,None,0,102,102,102,,2,1,0.5058500320010353,go,0.2,1.538,2.5380000000000003,0042,Scanner,L,1,2019_Aug_21_1246,SST,3.0.7,23.996998532300513,
go,sst_images/Right_Arrow.bmp,None,2,716,None,0,103,103,103,,2,1,0.6303555079939542,go,0.2,0.716,1.716,0042,Scanner,L,1,2019_Aug_21_1246,SST,3.0.7,23.996998532300513,
stop,sst_images/Left_Arrow.bmp,sst_images/Stop_Arrow.bmp,none,1093,None,0,104,104,104,,None,1,,stop,0.25,1.093,2.093,0042,Scanner,L,1,2019_Aug_21_1246,SST,3.0.7,23.996998532300513,
go,sst_images/Left_Arrow.bmp,None,1,717,None,0,105,105,105,,1,1,0.6298862109979382,go,0.25,0.717,1.717,0042,Scanner,L,1,2019_Aug_21_1246,SST,3.0.7,23.996998532300513,
go,sst_images/Left_Arrow.bmp,None,1,1018,None,0,106,106,106,,1,1,0.7540851319936337,go,0.25,1.018,2.018,0042,Scanner,L,1,2019_Aug_21_1246,SST,3.0.7,23.996998532300513,
go,sst_images/Right_Arrow.bmp,None,2,768,None,0,107,107,107,,2,1,0.5898766680038534,go,0.25,0.768,1.768,0042,Scanner,L,1,2019_Aug_21_1246,SST,3.0.7,23.996998532300513,
stop,sst_images/Right_Arrow.bmp,sst_images/Stop_Arrow.bmp,none,717,None,0,108,108,108,,2,0,0.5687113260064507,stop,0.2,0.717,1.6982886739935494,0042,Scanner,L,1,2019_Aug_21_1246,SST,3.0.7,23.996998532300513,
go,sst_images/Right_Arrow.bmp,None,2,1081,None,0,109,109,109,,2,1,0.8377501869981643,go,0.2,1.081,2.081,0042,Scanner,L,1,2019_Aug_21_1246,SST,3.0.7,23.996998532300513,
go,sst_images/Left_Arrow.bmp,None,1,765,None,0,110,110,110,,1,1,0.8330835350061534,go,0.2,0.765,1.7650000000000001,0042,Scanner,L,1,2019_Aug_21_1246,SST,3.0.7,23.996998532300513,
go,sst_images/Right_Arrow.bmp,None,2,858,None,0,111,111,111,,2,1,0.7918758989981143,go,0.2,0.858,1.858,0042,Scanner,L,1,2019_Aug_21_1246,SST,3.0.7,23.996998532300513,
go,sst_images/Left_Arrow.bmp,None,1,1408,None,0,112,112,112,,1,1,0.7119976569956634,go,0.2,1.408,2.408,0042,Scanner,L,1,2019_Aug_21_1246,SST,3.0.7,23.996998532300513,
go,sst_images/Right_Arrow.bmp,None,2,1262,None,0,113,113,113,,2,1,0.7522056480083847,go,0.2,1.262,2.262,0042,Scanner,L,1,2019_Aug_21_1246,SST,3.0.7,23.996998532300513,
stop,sst_images/Left_Arrow.bmp,sst_images/Stop_Arrow.bmp,none,755,None,0,114,114,114,,1,0,0.4441758890025085,stop,0.15000000000000002,0.755,1.8108241109974914,0042,Scanner,L,1,2019_Aug_21_1246,SST,3.0.7,23.996998532300513,
go,sst_images/Left_Arrow.bmp,None,1,1408,None,0,115,115,115,,1,1,0.8397697470063576,go,0.15000000000000002,1.408,2.408,0042,Scanner,L,1,2019_Aug_21_1246,SST,3.0.7,23.996998532300513,
go,sst_images/Right_Arrow.bmp,None,2,703,None,0,116,116,116,,2,1,0.7898953729891218,go,0.15000000000000002,0.703,1.7029999999999998,0042,Scanner,L,1,2019_Aug_21_1246,SST,3.0.7,23.996998532300513,
go,sst_images/Left_Arrow.bmp,None,1,731,None,0,117,117,117,,1,1,0.545825260996935,go,0.15000000000000002,0.731,1.7309999999999999,0042,Scanner,L,1,2019_Aug_21_1246,SST,3.0.7,23.996998532300513,
go,sst_images/Right_Arrow.bmp,None,2,2000,None,0,118,118,118,,2,1,0.632217099002446,go,0.15000000000000002,2.0,3.0,0042,Scanner,L,1,2019_Aug_21_1246,SST,3.0.7,23.996998532300513,
go,sst_images/Left_Arrow.bmp,None,1,908,None,0,119,119,119,,1,1,0.701617429003818,go,0.15000000000000002,0.908,1.908,0042,Scanner,L,1,2019_Aug_21_1246,SST,3.0.7,23.996998532300513,
go,sst_images/Right_Arrow.bmp,None,2,1866,None,0,120,120,120,,None,0,,go,0.15000000000000002,1.866,2.866,0042,Scanner,L,1,2019_Aug_21_1246,SST,3.0.7,23.996998532300513,
go,sst_images/Left_Arrow.bmp,None,1,1073,None,0,121,121,121,,1,1,0.7089759969967417,go,0.15000000000000002,1.073,2.073,0042,Scanner,L,1,2019_Aug_21_1246,SST,3.0.7,23.996998532300513,
go,sst_images/Right_Arrow.bmp,None,2,1290,None,0,122,122,122,,2,1,0.707891689002281,go,0.15000000000000002,1.29,2.29,0042,Scanner,L,1,2019_Aug_21_1246,SST,3.0.7,23.996998532300513,
go,sst_images/Right_Arrow.bmp,None,2,708,None,0,123,123,123,,2,1,0.6411005950067192,go,0.15000000000000002,0.708,1.708,0042,Scanner,L,1,2019_Aug_21_1246,SST,3.0.7,23.996998532300513,
go,sst_images/Left_Arrow.bmp,None,1,1713,None,0,124,124,124,,1,1,0.8775815549888648,go,0.15000000000000002,1.713,2.713,0042,Scanner,L,1,2019_Aug_21_1246,SST,3.0.7,23.996998532300513,
go,sst_images/Left_Arrow.bmp,None,1,744,None,0,125,125,125,,1,1,0.8772585089900531,go,0.15000000000000002,0.744,1.744,0042,Scanner,L,1,2019_Aug_21_1246,SST,3.0.7,23.996998532300513,
go,sst_images/Left_Arrow.bmp,None,1,760,None,0,126,126,126,,1,1,0.8236082310031634,go,0.15000000000000002,0.76,1.76,0042,Scanner,L,1,2019_Aug_21_1246,SST,3.0.7,23.996998532300513,
stop,sst_images/Left_Arrow.bmp,sst_images/Stop_Arrow.bmp,none,1081,None,0,127,127,127,,None,1,,stop,0.2,1.081,2.0809999999999995,0042,Scanner,L,1,2019_Aug_21_1246,SST,3.0.7,23.996998532300513,
go,sst_images/Right_Arrow.bmp,None,2,1285,None,0,128,128,128,,2,1,0.6706665499950759,go,0.2,1.285,2.285,0042,Scanner,L,1,2019_Aug_21_1246,SST,3.0.7,23.996998532300513,
go,sst_images/Left_Arrow.bmp,None,1,728,None,0,129,129,129,,1,1,0.6690654159901896,go,0.2,0.728,1.728,0042,Scanner,L,1,2019_Aug_21_1246,SST,3.0.7,23.996998532300513,
stop,sst_images/Right_Arrow.bmp,sst_images/Stop_Arrow.bmp,none,745,None,0,130,130,130,,None,1,,stop,0.25,0.745,1.7449999999999999,0042,Scanner,L,1,2019_Aug_21_1246,SST,3.0.7,23.996998532300513,
go,sst_images/Left_Arrow.bmp,None,1,809,None,0,131,131,131,,1,1,0.6299070959939854,go,0.25,0.809,1.8090000000000002,0042,Scanner,L,1,2019_Aug_21_1246,SST,3.0.7,23.996998532300513,
go,sst_images/Left_Arrow.bmp,None,1,1427,None,0,132,132,132,,1,1,0.7146483680116944,go,0.25,1.427,2.427,0042,Scanner,L,1,2019_Aug_21_1246,SST,3.0.7,23.996998532300513,
go,sst_images/Right_Arrow.bmp,None,2,947,None,0,133,133,133,,2,1,0.9007945790071972,go,0.25,0.947,1.947,0042,Scanner,L,1,2019_Aug_21_1246,SST,3.0.7,23.996998532300513,
go,sst_images/Left_Arrow.bmp,None,1,714,None,0,134,134,134,,1,1,0.5460339699930046,go,0.25,0.714,1.714,0042,Scanner,L,1,2019_Aug_21_1246,SST,3.0.7,23.996998532300513,
stop,sst_images/Left_Arrow.bmp,sst_images/Stop_Arrow.bmp,none,992,None,0,135,135,135,,1,0,0.5821444970060838,stop,0.2,0.992,1.9598555029939162,0042,Scanner,L,1,2019_Aug_21_1246,SST,3.0.7,23.996998532300513,
go,sst_images/Left_Arrow.bmp,None,1,729,None,0,136,136,136,,1,1,0.877600521009299,go,0.2,0.729,1.729,0042,Scanner,L,1,2019_Aug_21_1246,SST,3.0.7,23.996998532300513,
go,sst_images/Right_Arrow.bmp,None,2,725,None,0,137,137,137,,2,1,0.8810363550001057,go,0.2,0.725,1.725,0042,Scanner,L,1,2019_Aug_21_1246,SST,3.0.7,23.996998532300513,
go,sst_images/Right_Arrow.bmp,None,2,725,None,0,138,138,138,,2,1,0.5438868260098388,go,0.2,0.725,1.725,0042,Scanner,L,1,2019_Aug_21_1246,SST,3.0.7,23.996998532300513,
stop,sst_images/Right_Arrow.bmp,sst_images/Stop_Arrow.bmp,none,790,None,0,139,139,139,,2,0,0.4894647140026791,stop,0.15000000000000002,0.79,1.800535285997321,0042,Scanner,L,1,2019_Aug_21_1246,SST,3.0.7,23.996998532300513,
go,sst_images/Left_Arrow.bmp,None,1,761,None,0,140,140,140,,1,1,0.7134665330086136,go,0.15000000000000002,0.761,1.7610000000000001,0042,Scanner,L,1,2019_Aug_21_1246,SST,3.0.7,23.996998532300513,
go,sst_images/Right_Arrow.bmp,None,2,1000,None,0,141,141,141,,2,1,0.6698331459920155,go,0.15000000000000002,1.0,2.0,0042,Scanner,L,1,2019_Aug_21_1246,SST,3.0.7,23.996998532300513,
go,sst_images/Left_Arrow.bmp,None,1,764,None,0,142,142,142,,1,1,0.6710256160004064,go,0.15000000000000002,0.764,1.764,0042,Scanner,L,1,2019_Aug_21_1246,SST,3.0.7,23.996998532300513,
go,sst_images/Left_Arrow.bmp,None,1,976,None,0,143,143,143,,1,1,0.6711318510060664,go,0.15000000000000002,0.976,1.976,0042,Scanner,L,1,2019_Aug_21_1246,SST,3.0.7,23.996998532300513,
go,sst_images/Right_Arrow.bmp,None,2,1123,None,0,144,144,144,,2,1,0.7103199020057218,go,0.15000000000000002,1.123,2.123,0042,Scanner,L,1,2019_Aug_21_1246,SST,3.0.7,23.996998532300513,
go,sst_images/Left_Arrow.bmp,None,1,721,None,0,145,145,145,,1,1,0.545290775000467,go,0.15000000000000002,0.721,1.721,0042,Scanner,L,1,2019_Aug_21_1246,SST,3.0.7,23.996998532300513,
go,sst_images/Right_Arrow.bmp,None,2,807,None,0,146,146,146,,2,1,0.6309986769920215,go,0.15000000000000002,0.807,1.807,0042,Scanner,L,1,2019_Aug_21_1246,SST,3.0.7,23.996998532300513,
go,sst_images/Left_Arrow.bmp,None,1,929,None,0,147,147,147,,1,1,0.586957480001729,go,0.15000000000000002,0.929,1.929,0042,Scanner,L,1,2019_Aug_21_1246,SST,3.0.7,23.996998532300513,
go,sst_images/Right_Arrow.bmp,None,2,701,None,0,148,148,148,,2,1,0.619984791992465,go,0.15000000000000002,0.701,1.701,0042,Scanner,L,1,2019_Aug_21_1246,SST,3.0.7,23.996998532300513,
stop,sst_images/Right_Arrow.bmp,sst_images/Stop_Arrow.bmp,none,929,None,0,149,149,149,,None,1,,stop,0.2,0.929,1.929,0042,Scanner,L,1,2019_Aug_21_1246,SST,3.0.7,23.996998532300513,
go,sst_images/Right_Arrow.bmp,None,2,745,None,0,150,150,150,,2,1,0.58835769900179,go,0.2,0.745,1.745,0042,Scanner,L,1,2019_Aug_21_1246,SST,3.0.7,23.996998532300513,
go,sst_images/Left_Arrow.bmp,None,1,984,None,0,151,151,151,,1,1,0.8354755629989086,go,0.2,0.984,1.984,0042,Scanner,L,1,2019_Aug_21_1246,SST,3.0.7,23.996998532300513,
go,sst_images/Right_Arrow.bmp,None,2,729,None,0,152,152,152,,2,1,0.6730252829875099,go,0.2,0.729,1.729,0042,Scanner,L,1,2019_Aug_21_1246,SST,3.0.7,23.996998532300513,
go,sst_images/Left_Arrow.bmp,None,1,831,None,0,153,153,153,,1,1,0.7141719130013371,go,0.2,0.831,1.831,0042,Scanner,L,1,2019_Aug_21_1246,SST,3.0.7,23.996998532300513,
stop,sst_images/Left_Arrow.bmp,sst_images/Stop_Arrow.bmp,none,1123,None,0,154,154,154,,None,1,,stop,0.25,1.123,2.1229999999999998,0042,Scanner,L,1,2019_Aug_21_1246,SST,3.0.7,23.996998532300513,
go,sst_images/Right_Arrow.bmp,None,2,710,None,0,155,155,155,,2,1,0.5470783040073002,go,0.25,0.71,1.71,0042,Scanner,L,1,2019_Aug_21_1246,SST,3.0.7,23.996998532300513,
go,sst_images/Left_Arrow.bmp,None,1,716,None,0,156,156,156,,1,1,0.5033587139914744,go,0.25,0.716,1.716,0042,Scanner,L,1,2019_Aug_21_1246,SST,3.0.7,23.996998532300513,
go,sst_images/Right_Arrow.bmp,None,2,928,None,0,157,157,157,,2,1,0.6270048629958183,go,0.25,0.928,1.928,0042,Scanner,L,1,2019_Aug_21_1246,SST,3.0.7,23.996998532300513,
go,sst_images/Left_Arrow.bmp,None,1,740,None,0,158,158,158,,1,1,0.6183202510001138,go,0.25,0.74,1.74,0042,Scanner,L,1,2019_Aug_21_1246,SST,3.0.7,23.996998532300513,
stop,sst_images/Left_Arrow.bmp,sst_images/Stop_Arrow.bmp,none,808,None,0,159,159,159,,None,1,,stop,0.3,0.808,1.808,0042,Scanner,L,1,2019_Aug_21_1246,SST,3.0.7,23.996998532300513,
go,sst_images/Left_Arrow.bmp,None,1,1533,None,0,160,160,160,,2,0,0.4618146309949225,go,0.3,1.533,2.533,0042,Scanner,L,1,2019_Aug_21_1246,SST,3.0.7,23.996998532300513,
go,sst_images/Right_Arrow.bmp,None,2,788,None,0,161,161,161,,2,1,0.6715646959928563,go,0.3,0.788,1.788,0042,Scanner,L,1,2019_Aug_21_1246,SST,3.0.7,23.996998532300513,
go,sst_images/Left_Arrow.bmp,None,1,782,None,0,162,162,162,,1,1,0.8792918989929603,go,0.3,0.782,1.782,0042,Scanner,L,1,2019_Aug_21_1246,SST,3.0.7,23.996998532300513,
go,sst_images/Right_Arrow.bmp,None,2,752,None,0,163,163,163,,2,1,0.8367483790061669,go,0.3,0.752,1.752,0042,Scanner,L,1,2019_Aug_21_1246,SST,3.0.7,23.996998532300513,
go,sst_images/Right_Arrow.bmp,None,2,1093,None,0,164,164,164,,2,1,0.7141679440101143,go,0.3,1.093,2.093,0042,Scanner,L,1,2019_Aug_21_1246,SST,3.0.7,23.996998532300513,
go,sst_images/Right_Arrow.bmp,None,2,774,None,0,165,165,165,,2,1,0.5446804529929068,go,0.3,0.774,1.774,0042,Scanner,L,1,2019_Aug_21_1246,SST,3.0.7,23.996998532300513,
go,sst_images/Left_Arrow.bmp,None,1,765,None,0,166,166,166,,1,1,0.6731711580068804,go,0.3,0.765,1.7650000000000001,0042,Scanner,L,1,2019_Aug_21_1246,SST,3.0.7,23.996998532300513,
go,sst_images/Right_Arrow.bmp,None,2,733,None,0,167,167,167,,2,1,0.5432976480078651,go,0.3,0.733,1.733,0042,Scanner,L,1,2019_Aug_21_1246,SST,3.0.7,23.996998532300513,
go,sst_images/Right_Arrow.bmp,None,2,752,None,0,168,168,168,,2,1,0.581430727004772,go,0.3,0.752,1.752,0042,Scanner,L,1,2019_Aug_21_1246,SST,3.0.7,23.996998532300513,
stop,sst_images/Left_Arrow.bmp,sst_images/Stop_Arrow.bmp,none,866,None,0,169,169,169,,None,1,,stop,0.35,0.866,1.866,0042,Scanner,L,1,2019_Aug_21_1246,SST,3.0.7,23.996998532300513,
go,sst_images/Left_Arrow.bmp,None,1,886,None,0,170,170,170,,1,1,0.7125948260072619,go,0.35,0.886,1.8860000000000001,0042,Scanner,L,1,2019_Aug_21_1246,SST,3.0.7,23.996998532300513,
go,sst_images/Right_Arrow.bmp,None,2,1212,None,0,171,171,171,,2,1,0.7552613540028688,go,0.35,1.212,2.2119999999999997,0042,Scanner,L,1,2019_Aug_21_1246,SST,3.0.7,23.996998532300513,
go,sst_images/Right_Arrow.bmp,None,2,958,None,0,172,172,172,,2,1,0.5811671190022025,go,0.35,0.958,1.958,0042,Scanner,L,1,2019_Aug_21_1246,SST,3.0.7,23.996998532300513,
go,sst_images/Right_Arrow.bmp,None,2,740,None,0,173,173,173,,2,1,0.5254436690011062,go,0.35,0.74,1.74,0042,Scanner,L,1,2019_Aug_21_1246,SST,3.0.7,23.996998532300513,
stop,sst_images/Right_Arrow.bmp,sst_images/Stop_Arrow.bmp,none,752,None,0,174,174,174,,2,0,0.5749358280008892,stop,0.3,0.752,1.8270641719991108,0042,Scanner,L,1,2019_Aug_21_1246,SST,3.0.7,23.996998532300513,
go,sst_images/Left_Arrow.bmp,None,1,850,None,0,175,175,175,,1,1,0.6654369020106969,go,0.3,0.85,1.85,0042,Scanner,L,1,2019_Aug_21_1246,SST,3.0.7,23.996998532300513,
stop,sst_images/Left_Arrow.bmp,sst_images/Stop_Arrow.bmp,none,774,None,0,176,176,176,,None,1,,stop,0.35,0.774,1.774,0042,Scanner,L,1,2019_Aug_21_1246,SST,3.0.7,23.996998532300513,
go,sst_images/Right_Arrow.bmp,None,2,779,None,0,177,177,177,,2,1,0.5872682469926076,go,0.35,0.779,1.779,0042,Scanner,L,1,2019_Aug_21_1246,SST,3.0.7,23.996998532300513,
go,sst_images/Left_Arrow.bmp,None,1,918,None,0,178,178,178,,1,1,0.7530850990006002,go,0.35,0.918,1.9180000000000001,0042,Scanner,L,1,2019_Aug_21_1246,SST,3.0.7,23.996998532300513,
go,sst_images/Right_Arrow.bmp,None,2,902,1062.0,0,179,179,179,,2,1,0.5458710579987383,go,0.35,0.902,1.9020000000000001,0042,Scanner,L,1,2019_Aug_21_1246,SST,3.0.7,23.996998532300513,
,,,,,,,,,,,,,,,,,,0042,Scanner,L,1,2019_Aug_21_1246,SST,3.0.7,23.996998532300513,
