trial_type,arrow_1,arrow_2,corrAns,jitter,run_end_fixation,trials.thisRepN,trials.thisTrialN,trials.thisN,trials.thisIndex,randomized TrialOrder,key_response.keys,key_response.corr,key_response.rt,trial_t.routineEndVal,ss_delay,iti_duration,SOA,participant,prac_or_scan,handedness,run,date,expName,psychopyVersion,frameRate,
go,sst_images/Left_Arrow.bmp,None,1,888,None,0,0,0,0,9,1,1,0.515681279997807,go,0.05,0.888,1.888,004,Scanner,R,2,2019_Sep_07_0952,SST,3.0.7,59.594683921281344,
go,sst_images/Right_Arrow.bmp,None,2,728,None,0,1,1,1,,2,1,0.3364034059995902,go,0.05,0.728,1.728,004,Scanner,R,2,2019_Sep_07_0952,SST,3.0.7,59.594683921281344,
stop,sst_images/Right_Arrow.bmp,sst_images/Stop_Arrow.bmp,none,714,None,0,2,2,2,,None,1,,stop,0.1,0.714,1.714,004,Scanner,R,2,2019_Sep_07_0952,SST,3.0.7,59.594683921281344,
go,sst_images/Right_Arrow.bmp,None,2,773,None,0,3,3,3,,2,1,0.4048211560002528,go,0.1,0.773,1.7730000000000001,004,Scanner,R,2,2019_Sep_07_0952,SST,3.0.7,59.594683921281344,
go,sst_images/Left_Arrow.bmp,None,1,905,None,0,4,4,4,,1,1,0.4201050249976106,go,0.1,0.905,1.905,004,Scanner,R,2,2019_Sep_07_0952,SST,3.0.7,59.594683921281344,
stop,sst_images/Left_Arrow.bmp,sst_images/Stop_Arrow.bmp,none,714,None,0,5,5,5,,None,1,,stop,0.15000000000000002,0.714,1.7140000000000002,004,Scanner,R,2,2019_Sep_07_0952,SST,3.0.7,59.594683921281344,
go,sst_images/Left_Arrow.bmp,None,1,713,None,0,6,6,6,,1,1,0.4032857049969607,go,0.15000000000000002,0.713,1.713,004,Scanner,R,2,2019_Sep_07_0952,SST,3.0.7,59.594683921281344,
go,sst_images/Right_Arrow.bmp,None,2,752,None,0,7,7,7,,2,1,0.3365749529984896,go,0.15000000000000002,0.752,1.752,004,Scanner,R,2,2019_Sep_07_0952,SST,3.0.7,59.594683921281344,
go,sst_images/Left_Arrow.bmp,None,1,788,None,0,8,8,8,,1,1,0.5350813890036079,go,0.15000000000000002,0.788,1.788,004,Scanner,R,2,2019_Sep_07_0952,SST,3.0.7,59.594683921281344,
go,sst_images/Right_Arrow.bmp,None,2,1024,None,0,9,9,9,,2,1,0.3021992459980538,go,0.15000000000000002,1.024,2.024,004,Scanner,R,2,2019_Sep_07_0952,SST,3.0.7,59.594683921281344,
go,sst_images/Right_Arrow.bmp,None,2,759,None,0,10,10,10,,2,1,0.5191003650033963,go,0.15000000000000002,0.759,1.759,004,Scanner,R,2,2019_Sep_07_0952,SST,3.0.7,59.594683921281344,
go,sst_images/Left_Arrow.bmp,None,1,743,None,0,11,11,11,,1,1,0.37348768399533583,go,0.15000000000000002,0.743,1.7429999999999999,004,Scanner,R,2,2019_Sep_07_0952,SST,3.0.7,59.594683921281344,
go,sst_images/Right_Arrow.bmp,None,2,739,None,0,12,12,12,,2,1,0.3869625890001771,go,0.15000000000000002,0.739,1.7389999999999999,004,Scanner,R,2,2019_Sep_07_0952,SST,3.0.7,59.594683921281344,
go,sst_images/Left_Arrow.bmp,None,1,1076,None,0,13,13,13,,1,1,0.3715208180001355,go,0.15000000000000002,1.076,2.076,004,Scanner,R,2,2019_Sep_07_0952,SST,3.0.7,59.594683921281344,
go,sst_images/Left_Arrow.bmp,None,1,922,None,0,14,14,14,,2,0,0.36249711499840487,go,0.15000000000000002,0.922,1.9220000000000002,004,Scanner,R,2,2019_Sep_07_0952,SST,3.0.7,59.594683921281344,
stop,sst_images/Left_Arrow.bmp,sst_images/Stop_Arrow.bmp,none,1239,None,0,15,15,15,,1,0,0.3711096120023285,stop,0.10000000000000002,1.239,2.3178903879976716,004,Scanner,R,2,2019_Sep_07_0952,SST,3.0.7,59.594683921281344,
go,sst_images/Left_Arrow.bmp,None,1,915,None,0,16,16,16,,1,1,0.487335575002362,go,0.10000000000000002,0.915,1.915,004,Scanner,R,2,2019_Sep_07_0952,SST,3.0.7,59.594683921281344,
go,sst_images/Right_Arrow.bmp,None,2,1121,None,0,17,17,17,,2,1,0.33735072999843396,go,0.10000000000000002,1.121,2.121,004,Scanner,R,2,2019_Sep_07_0952,SST,3.0.7,59.594683921281344,
go,sst_images/Left_Arrow.bmp,None,1,709,None,0,18,18,18,,1,1,0.37850458300090395,go,0.10000000000000002,0.709,1.709,004,Scanner,R,2,2019_Sep_07_0952,SST,3.0.7,59.594683921281344,
go,sst_images/Left_Arrow.bmp,None,1,1765,None,0,19,19,19,,1,1,0.3863200470004813,go,0.10000000000000002,1.765,2.7649999999999997,004,Scanner,R,2,2019_Sep_07_0952,SST,3.0.7,59.594683921281344,
go,sst_images/Right_Arrow.bmp,None,2,824,None,0,20,20,20,,2,1,0.3843713200039929,go,0.10000000000000002,0.824,1.8239999999999998,004,Scanner,R,2,2019_Sep_07_0952,SST,3.0.7,59.594683921281344,
go,sst_images/Left_Arrow.bmp,None,1,1236,None,0,21,21,21,,1,1,0.3859482609987026,go,0.10000000000000002,1.236,2.2359999999999998,004,Scanner,R,2,2019_Sep_07_0952,SST,3.0.7,59.594683921281344,
go,sst_images/Right_Arrow.bmp,None,2,982,None,0,22,22,22,,2,1,0.3944978959989385,go,0.10000000000000002,0.982,1.982,004,Scanner,R,2,2019_Sep_07_0952,SST,3.0.7,59.594683921281344,
stop,sst_images/Right_Arrow.bmp,sst_images/Stop_Arrow.bmp,none,713,None,0,23,23,23,,None,1,,stop,0.15000000000000002,0.713,1.713,004,Scanner,R,2,2019_Sep_07_0952,SST,3.0.7,59.594683921281344,
go,sst_images/Left_Arrow.bmp,None,1,1011,None,0,24,24,24,,1,1,0.5217517769997357,go,0.15000000000000002,1.011,2.011,004,Scanner,R,2,2019_Sep_07_0952,SST,3.0.7,59.594683921281344,
go,sst_images/Right_Arrow.bmp,None,2,756,None,0,25,25,25,,2,1,0.4049517149978783,go,0.15000000000000002,0.756,1.756,004,Scanner,R,2,2019_Sep_07_0952,SST,3.0.7,59.594683921281344,
go,sst_images/Right_Arrow.bmp,None,2,702,None,0,26,26,26,,2,1,0.43722309800068615,go,0.15000000000000002,0.702,1.702,004,Scanner,R,2,2019_Sep_07_0952,SST,3.0.7,59.594683921281344,
go,sst_images/Left_Arrow.bmp,None,1,1239,None,0,27,27,27,,1,1,0.336318369001674,go,0.15000000000000002,1.239,2.239,004,Scanner,R,2,2019_Sep_07_0952,SST,3.0.7,59.594683921281344,
go,sst_images/Right_Arrow.bmp,None,2,887,None,0,28,28,28,,2,1,0.3940254770059255,go,0.15000000000000002,0.887,1.887,004,Scanner,R,2,2019_Sep_07_0952,SST,3.0.7,59.594683921281344,
go,sst_images/Right_Arrow.bmp,None,2,849,None,0,29,29,29,,1,0,0.30323905200202717,go,0.15000000000000002,0.849,1.849,004,Scanner,R,2,2019_Sep_07_0952,SST,3.0.7,59.594683921281344,
stop,sst_images/Right_Arrow.bmp,sst_images/Stop_Arrow.bmp,none,759,None,0,30,30,30,,2,0,0.3698900079980376,stop,0.10000000000000002,0.759,1.8391099920019622,004,Scanner,R,2,2019_Sep_07_0952,SST,3.0.7,59.594683921281344,
go,sst_images/Left_Arrow.bmp,None,1,717,None,0,31,31,31,,1,1,0.36330382199957967,go,0.10000000000000002,0.717,1.717,004,Scanner,R,2,2019_Sep_07_0952,SST,3.0.7,59.594683921281344,
go,sst_images/Right_Arrow.bmp,None,2,922,None,0,32,32,32,,2,1,0.34250865999638336,go,0.10000000000000002,0.922,1.9220000000000002,004,Scanner,R,2,2019_Sep_07_0952,SST,3.0.7,59.594683921281344,
stop,sst_images/Left_Arrow.bmp,sst_images/Stop_Arrow.bmp,none,885,None,0,33,33,33,,1,0,0.33785363499919185,stop,0.05000000000000002,0.885,1.9471463650008083,004,Scanner,R,2,2019_Sep_07_0952,SST,3.0.7,59.594683921281344,
go,sst_images/Left_Arrow.bmp,None,1,1045,None,0,34,34,34,,1,1,0.35325130999990506,go,0.05000000000000002,1.045,2.045,004,Scanner,R,2,2019_Sep_07_0952,SST,3.0.7,59.594683921281344,
go,sst_images/Left_Arrow.bmp,None,1,826,None,0,35,35,35,,1,1,0.4422193040009006,go,0.05000000000000002,0.826,1.826,004,Scanner,R,2,2019_Sep_07_0952,SST,3.0.7,59.594683921281344,
go,sst_images/Right_Arrow.bmp,None,2,1091,None,0,36,36,36,,2,1,0.3853682810004102,go,0.05000000000000002,1.091,2.091,004,Scanner,R,2,2019_Sep_07_0952,SST,3.0.7,59.594683921281344,
stop,sst_images/Right_Arrow.bmp,sst_images/Stop_Arrow.bmp,none,786,None,0,37,37,37,,None,1,,stop,0.10000000000000002,0.786,1.786,004,Scanner,R,2,2019_Sep_07_0952,SST,3.0.7,59.594683921281344,
go,sst_images/Right_Arrow.bmp,None,2,921,None,0,38,38,38,,2,1,0.34344961399619933,go,0.10000000000000002,0.921,1.921,004,Scanner,R,2,2019_Sep_07_0952,SST,3.0.7,59.594683921281344,
go,sst_images/Left_Arrow.bmp,None,1,755,None,0,39,39,39,,1,1,0.3716892129959888,go,0.10000000000000002,0.755,1.755,004,Scanner,R,2,2019_Sep_07_0952,SST,3.0.7,59.594683921281344,
go,sst_images/Left_Arrow.bmp,None,1,1085,None,0,40,40,40,,1,1,0.41960851000476396,go,0.10000000000000002,1.085,2.085,004,Scanner,R,2,2019_Sep_07_0952,SST,3.0.7,59.594683921281344,
go,sst_images/Right_Arrow.bmp,None,2,825,None,0,41,41,41,,2,1,0.40461397799663246,go,0.10000000000000002,0.825,1.825,004,Scanner,R,2,2019_Sep_07_0952,SST,3.0.7,59.594683921281344,
go,sst_images/Left_Arrow.bmp,None,1,741,None,0,42,42,42,,1,1,0.5087607230016147,go,0.10000000000000002,0.741,1.741,004,Scanner,R,2,2019_Sep_07_0952,SST,3.0.7,59.594683921281344,
go,sst_images/Left_Arrow.bmp,None,1,953,None,0,43,43,43,,1,1,0.4435696279979311,go,0.10000000000000002,0.953,1.9529999999999998,004,Scanner,R,2,2019_Sep_07_0952,SST,3.0.7,59.594683921281344,
stop,sst_images/Right_Arrow.bmp,sst_images/Stop_Arrow.bmp,none,746,None,0,44,44,44,,2,0,0.40477794600155903,stop,0.05000000000000002,0.746,1.741222053998441,004,Scanner,R,2,2019_Sep_07_0952,SST,3.0.7,59.594683921281344,
go,sst_images/Right_Arrow.bmp,None,2,813,None,0,45,45,45,,2,1,0.42763794300117297,go,0.05000000000000002,0.813,1.813,004,Scanner,R,2,2019_Sep_07_0952,SST,3.0.7,59.594683921281344,
go,sst_images/Right_Arrow.bmp,None,2,846,None,0,46,46,46,,1,0,0.32399561300553614,go,0.05000000000000002,0.846,1.846,004,Scanner,R,2,2019_Sep_07_0952,SST,3.0.7,59.594683921281344,
go,sst_images/Right_Arrow.bmp,None,2,952,None,0,47,47,47,,2,1,0.43575408500328194,go,0.05000000000000002,0.952,1.952,004,Scanner,R,2,2019_Sep_07_0952,SST,3.0.7,59.594683921281344,
go,sst_images/Left_Arrow.bmp,None,1,702,None,0,48,48,48,,1,1,0.5207353880032315,go,0.05000000000000002,0.702,1.702,004,Scanner,R,2,2019_Sep_07_0952,SST,3.0.7,59.594683921281344,
go,sst_images/Left_Arrow.bmp,None,1,763,None,0,49,49,49,,1,1,0.4776175470033195,go,0.05000000000000002,0.763,1.763,004,Scanner,R,2,2019_Sep_07_0952,SST,3.0.7,59.594683921281344,
stop,sst_images/Left_Arrow.bmp,sst_images/Stop_Arrow.bmp,none,1087,None,0,50,50,50,,None,1,,stop,0.10000000000000002,1.087,2.0869999999999997,004,Scanner,R,2,2019_Sep_07_0952,SST,3.0.7,59.594683921281344,
go,sst_images/Left_Arrow.bmp,None,1,801,None,0,51,51,51,,1,1,0.4095674499985762,go,0.10000000000000002,0.801,1.8010000000000002,004,Scanner,R,2,2019_Sep_07_0952,SST,3.0.7,59.594683921281344,
go,sst_images/Right_Arrow.bmp,None,2,810,None,0,52,52,52,,2,1,0.32540669300215086,go,0.10000000000000002,0.81,1.81,004,Scanner,R,2,2019_Sep_07_0952,SST,3.0.7,59.594683921281344,
go,sst_images/Right_Arrow.bmp,None,2,715,None,0,53,53,53,,2,1,0.459461778998957,go,0.10000000000000002,0.715,1.7149999999999999,004,Scanner,R,2,2019_Sep_07_0952,SST,3.0.7,59.594683921281344,
go,sst_images/Left_Arrow.bmp,None,1,1023,None,0,54,54,54,,1,1,0.36056420800014166,go,0.10000000000000002,1.023,2.0229999999999997,004,Scanner,R,2,2019_Sep_07_0952,SST,3.0.7,59.594683921281344,
go,sst_images/Left_Arrow.bmp,None,1,769,None,0,55,55,55,,1,1,0.5340801769998507,go,0.10000000000000002,0.769,1.7690000000000001,004,Scanner,R,2,2019_Sep_07_0952,SST,3.0.7,59.594683921281344,
stop,sst_images/Right_Arrow.bmp,sst_images/Stop_Arrow.bmp,none,825,None,0,56,56,56,,None,1,,stop,0.15000000000000002,0.825,1.825,004,Scanner,R,2,2019_Sep_07_0952,SST,3.0.7,59.594683921281344,
go,sst_images/Left_Arrow.bmp,None,1,757,None,0,57,57,57,,1,1,0.42594427500444,go,0.15000000000000002,0.757,1.7570000000000001,004,Scanner,R,2,2019_Sep_07_0952,SST,3.0.7,59.594683921281344,
go,sst_images/Right_Arrow.bmp,None,2,742,None,0,58,58,58,,2,1,0.35980204500083346,go,0.15000000000000002,0.742,1.742,004,Scanner,R,2,2019_Sep_07_0952,SST,3.0.7,59.594683921281344,
go,sst_images/Left_Arrow.bmp,None,1,817,None,0,59,59,59,,1,1,0.4097719959972892,go,0.15000000000000002,0.817,1.817,004,Scanner,R,2,2019_Sep_07_0952,SST,3.0.7,59.594683921281344,
go,sst_images/Left_Arrow.bmp,None,1,1011,None,0,60,60,60,,1,1,0.39261230699776206,go,0.15000000000000002,1.011,2.011,004,Scanner,R,2,2019_Sep_07_0952,SST,3.0.7,59.594683921281344,
stop,sst_images/Left_Arrow.bmp,sst_images/Stop_Arrow.bmp,none,872,None,0,61,61,61,,1,0,0.41983075300231576,stop,0.10000000000000002,0.872,1.902169246997684,004,Scanner,R,2,2019_Sep_07_0952,SST,3.0.7,59.594683921281344,
go,sst_images/Right_Arrow.bmp,None,2,701,None,0,62,62,62,,2,1,0.4408354289989802,go,0.10000000000000002,0.701,1.701,004,Scanner,R,2,2019_Sep_07_0952,SST,3.0.7,59.594683921281344,
go,sst_images/Right_Arrow.bmp,None,2,780,None,0,63,63,63,,2,1,0.3908672559991828,go,0.10000000000000002,0.78,1.78,004,Scanner,R,2,2019_Sep_07_0952,SST,3.0.7,59.594683921281344,
stop,sst_images/Right_Arrow.bmp,sst_images/Stop_Arrow.bmp,none,780,None,0,64,64,64,,None,1,,stop,0.15000000000000002,0.78,1.78,004,Scanner,R,2,2019_Sep_07_0952,SST,3.0.7,59.594683921281344,
go,sst_images/Left_Arrow.bmp,None,1,890,None,0,65,65,65,,1,1,0.4083039960023598,go,0.15000000000000002,0.89,1.8900000000000001,004,Scanner,R,2,2019_Sep_07_0952,SST,3.0.7,59.594683921281344,
go,sst_images/Right_Arrow.bmp,None,2,770,None,0,66,66,66,,2,1,0.3566279200022109,go,0.15000000000000002,0.77,1.77,004,Scanner,R,2,2019_Sep_07_0952,SST,3.0.7,59.594683921281344,
go,sst_images/Left_Arrow.bmp,None,1,728,None,0,67,67,67,,1,1,0.502915656004916,go,0.15000000000000002,0.728,1.728,004,Scanner,R,2,2019_Sep_07_0952,SST,3.0.7,59.594683921281344,
go,sst_images/Right_Arrow.bmp,None,2,781,None,0,68,68,68,,2,1,0.3877265359988087,go,0.15000000000000002,0.781,1.7810000000000001,004,Scanner,R,2,2019_Sep_07_0952,SST,3.0.7,59.594683921281344,
stop,sst_images/Right_Arrow.bmp,sst_images/Stop_Arrow.bmp,none,1171,None,0,69,69,69,,None,1,,stop,0.2,1.171,2.171,004,Scanner,R,2,2019_Sep_07_0952,SST,3.0.7,59.594683921281344,
go,sst_images/Right_Arrow.bmp,None,2,819,None,0,70,70,70,,2,1,0.4404366550006671,go,0.2,0.819,1.819,004,Scanner,R,2,2019_Sep_07_0952,SST,3.0.7,59.594683921281344,
go,sst_images/Left_Arrow.bmp,None,1,1105,None,0,71,71,71,,1,1,0.3401710100006312,go,0.2,1.105,2.105,004,Scanner,R,2,2019_Sep_07_0952,SST,3.0.7,59.594683921281344,
go,sst_images/Right_Arrow.bmp,None,2,734,None,0,72,72,72,,2,1,0.5551065700055915,go,0.2,0.734,1.734,004,Scanner,R,2,2019_Sep_07_0952,SST,3.0.7,59.594683921281344,
go,sst_images/Left_Arrow.bmp,None,1,719,None,0,73,73,73,,1,1,0.6067644549984834,go,0.2,0.719,1.7189999999999999,004,Scanner,R,2,2019_Sep_07_0952,SST,3.0.7,59.594683921281344,
go,sst_images/Right_Arrow.bmp,None,2,716,None,0,74,74,74,,2,1,0.6750443239943706,go,0.2,0.716,1.716,004,Scanner,R,2,2019_Sep_07_0952,SST,3.0.7,59.594683921281344,
stop,sst_images/Left_Arrow.bmp,sst_images/Stop_Arrow.bmp,none,824,None,0,75,75,75,,1,0,0.385304970004654,stop,0.15000000000000002,0.824,1.9386950299953458,004,Scanner,R,2,2019_Sep_07_0952,SST,3.0.7,59.594683921281344,
go,sst_images/Left_Arrow.bmp,None,1,914,None,0,76,76,76,,1,1,0.420267255998624,go,0.15000000000000002,0.914,1.9140000000000001,004,Scanner,R,2,2019_Sep_07_0952,SST,3.0.7,59.594683921281344,
go,sst_images/Right_Arrow.bmp,None,2,746,None,0,77,77,77,,2,1,0.3674838910010294,go,0.15000000000000002,0.746,1.746,004,Scanner,R,2,2019_Sep_07_0952,SST,3.0.7,59.594683921281344,
go,sst_images/Right_Arrow.bmp,None,2,798,None,0,78,78,78,,1,0,0.28738732599595096,go,0.15000000000000002,0.798,1.798,004,Scanner,R,2,2019_Sep_07_0952,SST,3.0.7,59.594683921281344,
stop,sst_images/Right_Arrow.bmp,sst_images/Stop_Arrow.bmp,none,704,None,0,79,79,79,,2,0,0.3863626979946275,stop,0.10000000000000002,0.704,1.7676373020053726,004,Scanner,R,2,2019_Sep_07_0952,SST,3.0.7,59.594683921281344,
go,sst_images/Left_Arrow.bmp,None,1,1087,None,0,80,80,80,,1,1,0.4028531279982417,go,0.10000000000000002,1.087,2.0869999999999997,004,Scanner,R,2,2019_Sep_07_0952,SST,3.0.7,59.594683921281344,
go,sst_images/Left_Arrow.bmp,None,1,1029,None,0,81,81,81,,1,1,0.41764933899685275,go,0.10000000000000002,1.029,2.029,004,Scanner,R,2,2019_Sep_07_0952,SST,3.0.7,59.594683921281344,
go,sst_images/Right_Arrow.bmp,None,2,714,None,0,82,82,82,,2,1,0.370529487998283,go,0.10000000000000002,0.714,1.714,004,Scanner,R,2,2019_Sep_07_0952,SST,3.0.7,59.594683921281344,
go,sst_images/Right_Arrow.bmp,None,2,776,None,0,83,83,83,,2,1,0.6727281760031474,go,0.10000000000000002,0.776,1.776,004,Scanner,R,2,2019_Sep_07_0952,SST,3.0.7,59.594683921281344,
stop,sst_images/Right_Arrow.bmp,sst_images/Stop_Arrow.bmp,none,1011,None,0,84,84,84,,None,1,,stop,0.15000000000000002,1.011,2.0109999999999997,004,Scanner,R,2,2019_Sep_07_0952,SST,3.0.7,59.594683921281344,
go,sst_images/Right_Arrow.bmp,None,2,1280,None,0,85,85,85,,2,1,0.6237666380038718,go,0.15000000000000002,1.28,2.2800000000000002,004,Scanner,R,2,2019_Sep_07_0952,SST,3.0.7,59.594683921281344,
go,sst_images/Left_Arrow.bmp,None,1,1161,None,0,86,86,86,,1,1,0.35637173199938843,go,0.15000000000000002,1.161,2.161,004,Scanner,R,2,2019_Sep_07_0952,SST,3.0.7,59.594683921281344,
go,sst_images/Left_Arrow.bmp,None,1,840,None,0,87,87,87,,1,1,0.4232250849963748,go,0.15000000000000002,0.84,1.8399999999999999,004,Scanner,R,2,2019_Sep_07_0952,SST,3.0.7,59.594683921281344,
go,sst_images/Right_Arrow.bmp,None,2,863,None,0,88,88,88,,1,0,0.38916461399639957,go,0.15000000000000002,0.863,1.863,004,Scanner,R,2,2019_Sep_07_0952,SST,3.0.7,59.594683921281344,
stop,sst_images/Left_Arrow.bmp,sst_images/Stop_Arrow.bmp,none,980,None,0,89,89,89,,None,1,,stop,0.2,0.98,1.9799999999999998,004,Scanner,R,2,2019_Sep_07_0952,SST,3.0.7,59.594683921281344,
go,sst_images/Left_Arrow.bmp,None,1,859,None,0,90,90,90,,1,1,0.4212432480053394,go,0.2,0.859,1.859,004,Scanner,R,2,2019_Sep_07_0952,SST,3.0.7,59.594683921281344,
go,sst_images/Right_Arrow.bmp,None,2,879,None,0,91,91,91,,2,1,0.4390016609977465,go,0.2,0.879,1.879,004,Scanner,R,2,2019_Sep_07_0952,SST,3.0.7,59.594683921281344,
go,sst_images/Left_Arrow.bmp,None,1,773,None,0,92,92,92,,1,1,0.43902327500109095,go,0.2,0.773,1.7730000000000001,004,Scanner,R,2,2019_Sep_07_0952,SST,3.0.7,59.594683921281344,
go,sst_images/Right_Arrow.bmp,None,2,701,None,0,93,93,93,,2,1,0.38602654099668143,go,0.2,0.701,1.701,004,Scanner,R,2,2019_Sep_07_0952,SST,3.0.7,59.594683921281344,
go,sst_images/Left_Arrow.bmp,None,1,765,None,0,94,94,94,,1,1,0.3196340380018228,go,0.2,0.765,1.7650000000000001,004,Scanner,R,2,2019_Sep_07_0952,SST,3.0.7,59.594683921281344,
stop,sst_images/Left_Arrow.bmp,sst_images/Stop_Arrow.bmp,none,1276,None,0,95,95,95,,None,1,,stop,0.25,1.276,2.276,004,Scanner,R,2,2019_Sep_07_0952,SST,3.0.7,59.594683921281344,
go,sst_images/Left_Arrow.bmp,None,1,719,None,0,96,96,96,,1,1,0.4715946259966586,go,0.25,0.719,1.7189999999999999,004,Scanner,R,2,2019_Sep_07_0952,SST,3.0.7,59.594683921281344,
go,sst_images/Left_Arrow.bmp,None,1,1227,None,0,97,97,97,,1,1,0.4368084779998753,go,0.25,1.227,2.2270000000000003,004,Scanner,R,2,2019_Sep_07_0952,SST,3.0.7,59.594683921281344,
go,sst_images/Right_Arrow.bmp,None,2,1039,None,0,98,98,98,,2,1,0.37143566400482086,go,0.25,1.039,2.0389999999999997,004,Scanner,R,2,2019_Sep_07_0952,SST,3.0.7,59.594683921281344,
go,sst_images/Left_Arrow.bmp,None,1,770,None,0,99,99,99,,1,1,0.34239387099660235,go,0.25,0.77,1.77,004,Scanner,R,2,2019_Sep_07_0952,SST,3.0.7,59.594683921281344,
go,sst_images/Right_Arrow.bmp,None,2,744,None,0,100,100,100,,2,1,0.454576794996683,go,0.25,0.744,1.744,004,Scanner,R,2,2019_Sep_07_0952,SST,3.0.7,59.594683921281344,
go,sst_images/Right_Arrow.bmp,None,2,767,None,0,101,101,101,,2,1,0.38402926200069487,go,0.25,0.767,1.767,004,Scanner,R,2,2019_Sep_07_0952,SST,3.0.7,59.594683921281344,
go,sst_images/Left_Arrow.bmp,None,1,792,None,0,102,102,102,,1,1,0.3346050229956745,go,0.25,0.792,1.792,004,Scanner,R,2,2019_Sep_07_0952,SST,3.0.7,59.594683921281344,
go,sst_images/Right_Arrow.bmp,None,2,754,None,0,103,103,103,,2,1,0.3371606349974172,go,0.25,0.754,1.754,004,Scanner,R,2,2019_Sep_07_0952,SST,3.0.7,59.594683921281344,
stop,sst_images/Right_Arrow.bmp,sst_images/Stop_Arrow.bmp,none,851,None,0,104,104,104,,2,0,0.4044565459989826,stop,0.2,0.851,1.9965434540010174,004,Scanner,R,2,2019_Sep_07_0952,SST,3.0.7,59.594683921281344,
go,sst_images/Right_Arrow.bmp,None,2,711,None,0,105,105,105,,2,1,0.4710905659958371,go,0.2,0.711,1.7109999999999999,004,Scanner,R,2,2019_Sep_07_0952,SST,3.0.7,59.594683921281344,
go,sst_images/Left_Arrow.bmp,None,1,824,None,0,106,106,106,,1,1,0.6364729779961635,go,0.2,0.824,1.8239999999999998,004,Scanner,R,2,2019_Sep_07_0952,SST,3.0.7,59.594683921281344,
go,sst_images/Left_Arrow.bmp,None,1,781,None,0,107,107,107,,1,1,0.6021654539945303,go,0.2,0.781,1.7810000000000001,004,Scanner,R,2,2019_Sep_07_0952,SST,3.0.7,59.594683921281344,
go,sst_images/Right_Arrow.bmp,None,2,786,None,0,108,108,108,,2,1,0.40475107000384014,go,0.2,0.786,1.786,004,Scanner,R,2,2019_Sep_07_0952,SST,3.0.7,59.594683921281344,
stop,sst_images/Left_Arrow.bmp,sst_images/Stop_Arrow.bmp,none,773,None,0,109,109,109,,1,0,0.35370598000008613,stop,0.15000000000000002,0.773,1.919294019999914,004,Scanner,R,2,2019_Sep_07_0952,SST,3.0.7,59.594683921281344,
go,sst_images/Right_Arrow.bmp,None,2,964,None,0,110,110,110,,2,1,0.38662858799943933,go,0.15000000000000002,0.964,1.964,004,Scanner,R,2,2019_Sep_07_0952,SST,3.0.7,59.594683921281344,
go,sst_images/Left_Arrow.bmp,None,1,875,None,0,111,111,111,,1,1,0.4544660460014711,go,0.15000000000000002,0.875,1.875,004,Scanner,R,2,2019_Sep_07_0952,SST,3.0.7,59.594683921281344,
go,sst_images/Right_Arrow.bmp,None,2,1041,None,0,112,112,112,,2,1,0.3873998470007791,go,0.15000000000000002,1.041,2.041,004,Scanner,R,2,2019_Sep_07_0952,SST,3.0.7,59.594683921281344,
go,sst_images/Left_Arrow.bmp,None,1,843,None,0,113,113,113,,1,1,0.35541590899811126,go,0.15000000000000002,0.843,1.843,004,Scanner,R,2,2019_Sep_07_0952,SST,3.0.7,59.594683921281344,
stop,sst_images/Left_Arrow.bmp,sst_images/Stop_Arrow.bmp,none,791,None,0,114,114,114,,None,1,,stop,0.2,0.791,1.7910000000000001,004,Scanner,R,2,2019_Sep_07_0952,SST,3.0.7,59.594683921281344,
go,sst_images/Right_Arrow.bmp,None,2,1018,None,0,115,115,115,,2,1,0.40705377900303574,go,0.2,1.018,2.018,004,Scanner,R,2,2019_Sep_07_0952,SST,3.0.7,59.594683921281344,
go,sst_images/Left_Arrow.bmp,None,1,1221,None,0,116,116,116,,1,1,0.3363713330036262,go,0.2,1.221,2.221,004,Scanner,R,2,2019_Sep_07_0952,SST,3.0.7,59.594683921281344,
stop,sst_images/Right_Arrow.bmp,sst_images/Stop_Arrow.bmp,none,755,None,0,117,117,117,,2,0,0.3691641810000874,stop,0.15000000000000002,0.755,1.8858358189999125,004,Scanner,R,2,2019_Sep_07_0952,SST,3.0.7,59.594683921281344,
go,sst_images/Right_Arrow.bmp,None,2,965,None,0,118,118,118,,2,1,0.43668794599943794,go,0.15000000000000002,0.965,1.9649999999999999,004,Scanner,R,2,2019_Sep_07_0952,SST,3.0.7,59.594683921281344,
go,sst_images/Left_Arrow.bmp,None,1,873,None,0,119,119,119,,1,1,0.38609885799814947,go,0.15000000000000002,0.873,1.873,004,Scanner,R,2,2019_Sep_07_0952,SST,3.0.7,59.594683921281344,
stop,sst_images/Left_Arrow.bmp,sst_images/Stop_Arrow.bmp,none,746,None,0,120,120,120,,None,1,,stop,0.2,0.746,1.7459999999999998,004,Scanner,R,2,2019_Sep_07_0952,SST,3.0.7,59.594683921281344,
go,sst_images/Right_Arrow.bmp,None,2,785,None,0,121,121,121,,2,1,0.3866132260009181,go,0.2,0.785,1.7850000000000001,004,Scanner,R,2,2019_Sep_07_0952,SST,3.0.7,59.594683921281344,
go,sst_images/Left_Arrow.bmp,None,1,824,None,0,122,122,122,,1,1,0.6052404970032512,go,0.2,0.824,1.8239999999999998,004,Scanner,R,2,2019_Sep_07_0952,SST,3.0.7,59.594683921281344,
go,sst_images/Right_Arrow.bmp,None,2,1199,None,0,123,123,123,,2,1,0.43817627699900186,go,0.2,1.199,2.199,004,Scanner,R,2,2019_Sep_07_0952,SST,3.0.7,59.594683921281344,
go,sst_images/Left_Arrow.bmp,None,1,795,None,0,124,124,124,,1,1,0.4383580459980294,go,0.2,0.795,1.795,004,Scanner,R,2,2019_Sep_07_0952,SST,3.0.7,59.594683921281344,
go,sst_images/Right_Arrow.bmp,None,2,1280,None,0,125,125,125,,2,1,0.7701788709964603,go,0.2,1.28,2.2800000000000002,004,Scanner,R,2,2019_Sep_07_0952,SST,3.0.7,59.594683921281344,
go,sst_images/Right_Arrow.bmp,None,2,1050,None,0,126,126,126,,2,1,0.45401625200611306,go,0.2,1.05,2.05,004,Scanner,R,2,2019_Sep_07_0952,SST,3.0.7,59.594683921281344,
go,sst_images/Left_Arrow.bmp,None,1,963,None,0,127,127,127,,1,1,0.3668402140028775,go,0.2,0.963,1.963,004,Scanner,R,2,2019_Sep_07_0952,SST,3.0.7,59.594683921281344,
go,sst_images/Left_Arrow.bmp,None,1,933,None,0,128,128,128,,1,1,0.4526706149990787,go,0.2,0.933,1.933,004,Scanner,R,2,2019_Sep_07_0952,SST,3.0.7,59.594683921281344,
stop,sst_images/Right_Arrow.bmp,sst_images/Stop_Arrow.bmp,none,827,None,0,129,129,129,,2,0,0.3698037270005443,stop,0.15000000000000002,0.827,1.9571962729994556,004,Scanner,R,2,2019_Sep_07_0952,SST,3.0.7,59.594683921281344,
go,sst_images/Left_Arrow.bmp,None,1,1155,None,0,130,130,130,,1,1,0.5866153099996154,go,0.15000000000000002,1.155,2.1550000000000002,004,Scanner,R,2,2019_Sep_07_0952,SST,3.0.7,59.594683921281344,
go,sst_images/Right_Arrow.bmp,None,2,718,None,0,131,131,131,,2,1,0.586281185002008,go,0.15000000000000002,0.718,1.718,004,Scanner,R,2,2019_Sep_07_0952,SST,3.0.7,59.594683921281344,
go,sst_images/Left_Arrow.bmp,None,1,759,None,0,132,132,132,,2,0,0.45043601500219665,go,0.15000000000000002,0.759,1.759,004,Scanner,R,2,2019_Sep_07_0952,SST,3.0.7,59.594683921281344,
go,sst_images/Left_Arrow.bmp,None,1,964,None,0,133,133,133,,1,1,0.4386863479958265,go,0.15000000000000002,0.964,1.964,004,Scanner,R,2,2019_Sep_07_0952,SST,3.0.7,59.594683921281344,
go,sst_images/Left_Arrow.bmp,None,1,789,None,0,134,134,134,,1,1,0.4049773959995946,go,0.15000000000000002,0.789,1.7890000000000001,004,Scanner,R,2,2019_Sep_07_0952,SST,3.0.7,59.594683921281344,
go,sst_images/Right_Arrow.bmp,None,2,746,None,0,135,135,135,,2,1,0.4009250279996195,go,0.15000000000000002,0.746,1.746,004,Scanner,R,2,2019_Sep_07_0952,SST,3.0.7,59.594683921281344,
go,sst_images/Left_Arrow.bmp,None,1,980,None,0,136,136,136,,1,1,0.35409023700049147,go,0.15000000000000002,0.98,1.98,004,Scanner,R,2,2019_Sep_07_0952,SST,3.0.7,59.594683921281344,
stop,sst_images/Right_Arrow.bmp,sst_images/Stop_Arrow.bmp,none,770,None,0,137,137,137,,2,0,0.3698711379984161,stop,0.10000000000000002,0.77,1.8501288620015839,004,Scanner,R,2,2019_Sep_07_0952,SST,3.0.7,59.594683921281344,
go,sst_images/Left_Arrow.bmp,None,1,757,None,0,138,138,138,,1,1,0.3717686820018571,go,0.10000000000000002,0.757,1.7570000000000001,004,Scanner,R,2,2019_Sep_07_0952,SST,3.0.7,59.594683921281344,
go,sst_images/Right_Arrow.bmp,None,2,962,None,0,139,139,139,,2,1,0.4874535940034548,go,0.10000000000000002,0.962,1.962,004,Scanner,R,2,2019_Sep_07_0952,SST,3.0.7,59.594683921281344,
go,sst_images/Right_Arrow.bmp,None,2,1171,None,0,140,140,140,,2,1,0.43762037100532325,go,0.10000000000000002,1.171,2.1710000000000003,004,Scanner,R,2,2019_Sep_07_0952,SST,3.0.7,59.594683921281344,
go,sst_images/Left_Arrow.bmp,None,1,921,None,0,141,141,141,,1,1,0.452839675002906,go,0.10000000000000002,0.921,1.921,004,Scanner,R,2,2019_Sep_07_0952,SST,3.0.7,59.594683921281344,
go,sst_images/Right_Arrow.bmp,None,2,1107,None,0,142,142,142,,2,1,0.40356001399777597,go,0.10000000000000002,1.107,2.107,004,Scanner,R,2,2019_Sep_07_0952,SST,3.0.7,59.594683921281344,
go,sst_images/Left_Arrow.bmp,None,1,773,None,0,143,143,143,,1,1,0.8700003709964221,go,0.10000000000000002,0.773,1.7730000000000001,004,Scanner,R,2,2019_Sep_07_0952,SST,3.0.7,59.594683921281344,
go,sst_images/Left_Arrow.bmp,None,1,733,None,0,144,144,144,,1,1,0.42086183500214247,go,0.10000000000000002,0.733,1.733,004,Scanner,R,2,2019_Sep_07_0952,SST,3.0.7,59.594683921281344,
go,sst_images/Right_Arrow.bmp,None,2,804,None,0,145,145,145,,2,1,0.7872863820011844,go,0.10000000000000002,0.804,1.804,004,Scanner,R,2,2019_Sep_07_0952,SST,3.0.7,59.594683921281344,
go,sst_images/Left_Arrow.bmp,None,1,1203,None,0,146,146,146,,1,1,0.33641003299999284,go,0.10000000000000002,1.203,2.2030000000000003,004,Scanner,R,2,2019_Sep_07_0952,SST,3.0.7,59.594683921281344,
go,sst_images/Right_Arrow.bmp,None,2,769,None,0,147,147,147,,2,1,0.38619427399680717,go,0.10000000000000002,0.769,1.7690000000000001,004,Scanner,R,2,2019_Sep_07_0952,SST,3.0.7,59.594683921281344,
go,sst_images/Left_Arrow.bmp,None,1,764,None,0,148,148,148,,1,1,0.8375724220022676,go,0.10000000000000002,0.764,1.764,004,Scanner,R,2,2019_Sep_07_0952,SST,3.0.7,59.594683921281344,
go,sst_images/Right_Arrow.bmp,None,2,733,None,0,149,149,149,,2,1,0.7195556219958235,go,0.10000000000000002,0.733,1.733,004,Scanner,R,2,2019_Sep_07_0952,SST,3.0.7,59.594683921281344,
stop,sst_images/Left_Arrow.bmp,sst_images/Stop_Arrow.bmp,none,888,None,0,150,150,150,,None,1,,stop,0.15000000000000002,0.888,1.8880000000000001,004,Scanner,R,2,2019_Sep_07_0952,SST,3.0.7,59.594683921281344,
go,sst_images/Right_Arrow.bmp,None,2,825,None,0,151,151,151,,2,1,0.36934524800017243,go,0.15000000000000002,0.825,1.825,004,Scanner,R,2,2019_Sep_07_0952,SST,3.0.7,59.594683921281344,
go,sst_images/Left_Arrow.bmp,None,1,756,None,0,152,152,152,,1,1,0.40472891100216657,go,0.15000000000000002,0.756,1.756,004,Scanner,R,2,2019_Sep_07_0952,SST,3.0.7,59.594683921281344,
go,sst_images/Right_Arrow.bmp,None,2,1601,None,0,153,153,153,,2,1,0.39271974100120133,go,0.15000000000000002,1.601,2.601,004,Scanner,R,2,2019_Sep_07_0952,SST,3.0.7,59.594683921281344,
go,sst_images/Left_Arrow.bmp,None,1,980,None,0,154,154,154,,1,1,0.4285263949932414,go,0.15000000000000002,0.98,1.98,004,Scanner,R,2,2019_Sep_07_0952,SST,3.0.7,59.594683921281344,
go,sst_images/Right_Arrow.bmp,None,2,772,None,0,155,155,155,,2,1,0.37121349800145254,go,0.15000000000000002,0.772,1.772,004,Scanner,R,2,2019_Sep_07_0952,SST,3.0.7,59.594683921281344,
stop,sst_images/Left_Arrow.bmp,sst_images/Stop_Arrow.bmp,none,809,None,0,156,156,156,,1,0,0.3623170499995467,stop,0.10000000000000002,0.809,1.8966829500004534,004,Scanner,R,2,2019_Sep_07_0952,SST,3.0.7,59.594683921281344,
go,sst_images/Left_Arrow.bmp,None,1,756,None,0,157,157,157,,1,1,0.45316027399530867,go,0.10000000000000002,0.756,1.756,004,Scanner,R,2,2019_Sep_07_0952,SST,3.0.7,59.594683921281344,
go,sst_images/Right_Arrow.bmp,None,2,1377,None,0,158,158,158,,2,1,0.3879519149995758,go,0.10000000000000002,1.377,2.377,004,Scanner,R,2,2019_Sep_07_0952,SST,3.0.7,59.594683921281344,
go,sst_images/Left_Arrow.bmp,None,1,1233,None,0,159,159,159,,1,1,0.43829092100349953,go,0.10000000000000002,1.233,2.233,004,Scanner,R,2,2019_Sep_07_0952,SST,3.0.7,59.594683921281344,
go,sst_images/Left_Arrow.bmp,None,1,904,None,0,160,160,160,,2,0,0.3864309679993312,go,0.10000000000000002,0.904,1.904,004,Scanner,R,2,2019_Sep_07_0952,SST,3.0.7,59.594683921281344,
go,sst_images/Right_Arrow.bmp,None,2,1162,None,0,161,161,161,,2,1,0.36093463999714004,go,0.10000000000000002,1.162,2.162,004,Scanner,R,2,2019_Sep_07_0952,SST,3.0.7,59.594683921281344,
go,sst_images/Left_Arrow.bmp,None,1,1101,None,0,162,162,162,,1,1,0.3604800670000259,go,0.10000000000000002,1.101,2.101,004,Scanner,R,2,2019_Sep_07_0952,SST,3.0.7,59.594683921281344,
go,sst_images/Right_Arrow.bmp,None,2,829,None,0,163,163,163,,2,1,0.3931369240017375,go,0.10000000000000002,0.829,1.829,004,Scanner,R,2,2019_Sep_07_0952,SST,3.0.7,59.594683921281344,
go,sst_images/Right_Arrow.bmp,None,2,968,None,0,164,164,164,,2,1,0.5381034160018316,go,0.10000000000000002,0.968,1.968,004,Scanner,R,2,2019_Sep_07_0952,SST,3.0.7,59.594683921281344,
go,sst_images/Right_Arrow.bmp,None,2,766,None,0,165,165,165,,2,1,0.35317531400505686,go,0.10000000000000002,0.766,1.766,004,Scanner,R,2,2019_Sep_07_0952,SST,3.0.7,59.594683921281344,
stop,sst_images/Left_Arrow.bmp,sst_images/Stop_Arrow.bmp,none,718,None,0,166,166,166,,None,1,,stop,0.15000000000000002,0.718,1.7180000000000002,004,Scanner,R,2,2019_Sep_07_0952,SST,3.0.7,59.594683921281344,
go,sst_images/Left_Arrow.bmp,None,1,742,None,0,167,167,167,,1,1,0.5358373850031057,go,0.15000000000000002,0.742,1.742,004,Scanner,R,2,2019_Sep_07_0952,SST,3.0.7,59.594683921281344,
go,sst_images/Right_Arrow.bmp,None,2,791,None,0,168,168,168,,2,1,0.37038504000520334,go,0.15000000000000002,0.791,1.791,004,Scanner,R,2,2019_Sep_07_0952,SST,3.0.7,59.594683921281344,
go,sst_images/Right_Arrow.bmp,None,2,900,None,0,169,169,169,,2,1,0.7934768339982838,go,0.15000000000000002,0.9,1.9,004,Scanner,R,2,2019_Sep_07_0952,SST,3.0.7,59.594683921281344,
stop,sst_images/Right_Arrow.bmp,sst_images/Stop_Arrow.bmp,none,793,None,0,170,170,170,,2,0,0.47816681200492894,stop,0.10000000000000002,0.793,1.7648331879950712,004,Scanner,R,2,2019_Sep_07_0952,SST,3.0.7,59.594683921281344,
go,sst_images/Left_Arrow.bmp,None,1,891,None,0,171,171,171,,1,1,0.6113270569985616,go,0.10000000000000002,0.891,1.891,004,Scanner,R,2,2019_Sep_07_0952,SST,3.0.7,59.594683921281344,
go,sst_images/Right_Arrow.bmp,None,2,872,None,0,172,172,172,,2,1,0.4421273409971036,go,0.10000000000000002,0.872,1.8719999999999999,004,Scanner,R,2,2019_Sep_07_0952,SST,3.0.7,59.594683921281344,
go,sst_images/Right_Arrow.bmp,None,2,1521,None,0,173,173,173,,2,1,0.4608691609973903,go,0.10000000000000002,1.521,2.521,004,Scanner,R,2,2019_Sep_07_0952,SST,3.0.7,59.594683921281344,
go,sst_images/Right_Arrow.bmp,None,2,911,None,0,174,174,174,,2,1,0.8280239669984439,go,0.10000000000000002,0.911,1.911,004,Scanner,R,2,2019_Sep_07_0952,SST,3.0.7,59.594683921281344,
go,sst_images/Left_Arrow.bmp,None,1,766,None,0,175,175,175,,1,1,0.4050075699997251,go,0.10000000000000002,0.766,1.766,004,Scanner,R,2,2019_Sep_07_0952,SST,3.0.7,59.594683921281344,
go,sst_images/Right_Arrow.bmp,None,2,721,None,0,176,176,176,,2,1,0.36082077299943194,go,0.10000000000000002,0.721,1.721,004,Scanner,R,2,2019_Sep_07_0952,SST,3.0.7,59.594683921281344,
go,sst_images/Left_Arrow.bmp,None,1,838,None,0,177,177,177,,1,1,0.5622424820030574,go,0.10000000000000002,0.838,1.838,004,Scanner,R,2,2019_Sep_07_0952,SST,3.0.7,59.594683921281344,
stop,sst_images/Left_Arrow.bmp,sst_images/Stop_Arrow.bmp,none,766,None,0,178,178,178,,None,1,,stop,0.15000000000000002,0.766,1.7660000000000002,004,Scanner,R,2,2019_Sep_07_0952,SST,3.0.7,59.594683921281344,
go,sst_images/Right_Arrow.bmp,None,2,780,7177.0,0,179,179,179,,2,1,0.5781215129973134,go,0.15000000000000002,0.78,1.78,004,Scanner,R,2,2019_Sep_07_0952,SST,3.0.7,59.594683921281344,
