trial_type,arrow_1,arrow_2,corrAns,jitter,run_end_fixation,trials.thisRepN,trials.thisTrialN,trials.thisN,trials.thisIndex,randomized TrialOrder,key_response.keys,key_response.corr,key_response.rt,trial_t.routineEndVal,ss_delay,iti_duration,SOA,participant,prac_or_scan,handedness,run,date,expName,psychopyVersion,frameRate,
go,sst_images/Left_Arrow.bmp,None,1,724,None,0,0,0,0,9,1,1,0.6703935789992101,go,0.05,0.724,1.724,004,Scanner,R,1,2019_Sep_07_0945,SST,3.0.7,60.25084753567052,
go,sst_images/Right_Arrow.bmp,None,2,842,None,0,1,1,1,,2,1,0.3939839380036574,go,0.05,0.842,1.842,004,Scanner,R,1,2019_Sep_07_0945,SST,3.0.7,60.25084753567052,
go,sst_images/Right_Arrow.bmp,None,2,709,None,0,2,2,2,,2,1,0.43825344699871494,go,0.05,0.709,1.709,004,Scanner,R,1,2019_Sep_07_0945,SST,3.0.7,60.25084753567052,
stop,sst_images/Right_Arrow.bmp,sst_images/Stop_Arrow.bmp,none,705,None,0,3,3,3,,None,1,,stop,0.1,0.705,1.705,004,Scanner,R,1,2019_Sep_07_0945,SST,3.0.7,60.25084753567052,
go,sst_images/Left_Arrow.bmp,None,1,937,None,0,4,4,4,,1,1,0.37598979200265603,go,0.1,0.937,1.937,004,Scanner,R,1,2019_Sep_07_0945,SST,3.0.7,60.25084753567052,
go,sst_images/Left_Arrow.bmp,None,1,840,None,0,5,5,5,,1,1,0.42466296900238376,go,0.1,0.84,1.8399999999999999,004,Scanner,R,1,2019_Sep_07_0945,SST,3.0.7,60.25084753567052,
go,sst_images/Right_Arrow.bmp,None,2,760,None,0,6,6,6,,2,1,0.3427976800012402,go,0.1,0.76,1.76,004,Scanner,R,1,2019_Sep_07_0945,SST,3.0.7,60.25084753567052,
go,sst_images/Left_Arrow.bmp,None,1,958,None,0,7,7,7,,1,1,0.37397665299795335,go,0.1,0.958,1.958,004,Scanner,R,1,2019_Sep_07_0945,SST,3.0.7,60.25084753567052,
stop,sst_images/Left_Arrow.bmp,sst_images/Stop_Arrow.bmp,none,1218,None,0,8,8,8,,None,1,,stop,0.15000000000000002,1.218,2.218,004,Scanner,R,1,2019_Sep_07_0945,SST,3.0.7,60.25084753567052,
go,sst_images/Right_Arrow.bmp,None,2,937,None,0,9,9,9,,2,1,0.3059397750039352,go,0.15000000000000002,0.937,1.937,004,Scanner,R,1,2019_Sep_07_0945,SST,3.0.7,60.25084753567052,
go,sst_images/Right_Arrow.bmp,None,2,879,None,0,10,10,10,,2,1,0.5236237709978013,go,0.15000000000000002,0.879,1.879,004,Scanner,R,1,2019_Sep_07_0945,SST,3.0.7,60.25084753567052,
go,sst_images/Left_Arrow.bmp,None,1,950,None,0,11,11,11,,1,1,0.32886038099968573,go,0.15000000000000002,0.95,1.95,004,Scanner,R,1,2019_Sep_07_0945,SST,3.0.7,60.25084753567052,
go,sst_images/Right_Arrow.bmp,None,2,1480,None,0,12,12,12,,2,1,0.2909930269961478,go,0.15000000000000002,1.48,2.48,004,Scanner,R,1,2019_Sep_07_0945,SST,3.0.7,60.25084753567052,
go,sst_images/Left_Arrow.bmp,None,1,1302,None,0,13,13,13,,1,1,0.3745036869950127,go,0.15000000000000002,1.302,2.302,004,Scanner,R,1,2019_Sep_07_0945,SST,3.0.7,60.25084753567052,
go,sst_images/Left_Arrow.bmp,None,1,736,None,0,14,14,14,,1,1,0.452701142996375,go,0.15000000000000002,0.736,1.736,004,Scanner,R,1,2019_Sep_07_0945,SST,3.0.7,60.25084753567052,
stop,sst_images/Left_Arrow.bmp,sst_images/Stop_Arrow.bmp,none,721,None,0,15,15,15,,None,1,,stop,0.2,0.721,1.7209999999999999,004,Scanner,R,1,2019_Sep_07_0945,SST,3.0.7,60.25084753567052,
go,sst_images/Left_Arrow.bmp,None,1,796,None,0,16,16,16,,1,1,0.4392406650003977,go,0.2,0.796,1.796,004,Scanner,R,1,2019_Sep_07_0945,SST,3.0.7,60.25084753567052,
go,sst_images/Right_Arrow.bmp,None,2,817,None,0,17,17,17,,2,1,0.4198684229995706,go,0.2,0.817,1.817,004,Scanner,R,1,2019_Sep_07_0945,SST,3.0.7,60.25084753567052,
go,sst_images/Left_Arrow.bmp,None,1,908,None,0,18,18,18,,1,1,0.35536158000468276,go,0.2,0.908,1.908,004,Scanner,R,1,2019_Sep_07_0945,SST,3.0.7,60.25084753567052,
stop,sst_images/Right_Arrow.bmp,sst_images/Stop_Arrow.bmp,none,795,None,0,19,19,19,,2,0,0.4897728139985702,stop,0.15000000000000002,0.795,1.8052271860014297,004,Scanner,R,1,2019_Sep_07_0945,SST,3.0.7,60.25084753567052,
go,sst_images/Left_Arrow.bmp,None,1,779,None,0,20,20,20,,1,1,0.37111554000148317,go,0.15000000000000002,0.779,1.779,004,Scanner,R,1,2019_Sep_07_0945,SST,3.0.7,60.25084753567052,
go,sst_images/Right_Arrow.bmp,None,2,1119,None,0,21,21,21,,2,1,0.33634317299583927,go,0.15000000000000002,1.119,2.1189999999999998,004,Scanner,R,1,2019_Sep_07_0945,SST,3.0.7,60.25084753567052,
go,sst_images/Left_Arrow.bmp,None,1,797,None,0,22,22,22,,1,1,0.320812574995216,go,0.15000000000000002,0.797,1.7970000000000002,004,Scanner,R,1,2019_Sep_07_0945,SST,3.0.7,60.25084753567052,
go,sst_images/Right_Arrow.bmp,None,2,856,None,0,23,23,23,,2,1,0.3061438619988621,go,0.15000000000000002,0.856,1.8559999999999999,004,Scanner,R,1,2019_Sep_07_0945,SST,3.0.7,60.25084753567052,
go,sst_images/Left_Arrow.bmp,None,1,721,None,0,24,24,24,,1,1,0.33946288999868557,go,0.15000000000000002,0.721,1.721,004,Scanner,R,1,2019_Sep_07_0945,SST,3.0.7,60.25084753567052,
go,sst_images/Right_Arrow.bmp,None,2,900,None,0,25,25,25,,2,1,0.5872307550016558,go,0.15000000000000002,0.9,1.9,004,Scanner,R,1,2019_Sep_07_0945,SST,3.0.7,60.25084753567052,
stop,sst_images/Right_Arrow.bmp,sst_images/Stop_Arrow.bmp,none,1603,None,0,26,26,26,,2,0,0.3709828600040055,stop,0.10000000000000002,1.603,2.682017139995994,004,Scanner,R,1,2019_Sep_07_0945,SST,3.0.7,60.25084753567052,
go,sst_images/Right_Arrow.bmp,None,2,728,None,0,27,27,27,,2,1,0.45414689899916993,go,0.10000000000000002,0.728,1.728,004,Scanner,R,1,2019_Sep_07_0945,SST,3.0.7,60.25084753567052,
go,sst_images/Left_Arrow.bmp,None,1,780,None,0,28,28,28,,1,1,0.40296284899523016,go,0.10000000000000002,0.78,1.78,004,Scanner,R,1,2019_Sep_07_0945,SST,3.0.7,60.25084753567052,
stop,sst_images/Left_Arrow.bmp,sst_images/Stop_Arrow.bmp,none,1520,None,0,29,29,29,,None,1,,stop,0.15000000000000002,1.52,2.52,004,Scanner,R,1,2019_Sep_07_0945,SST,3.0.7,60.25084753567052,
go,sst_images/Right_Arrow.bmp,None,2,1072,None,0,30,30,30,,2,1,0.40519256699917605,go,0.15000000000000002,1.072,2.072,004,Scanner,R,1,2019_Sep_07_0945,SST,3.0.7,60.25084753567052,
go,sst_images/Right_Arrow.bmp,None,2,885,None,0,31,31,31,,2,1,0.5237880669956212,go,0.15000000000000002,0.885,1.885,004,Scanner,R,1,2019_Sep_07_0945,SST,3.0.7,60.25084753567052,
go,sst_images/Left_Arrow.bmp,None,1,1283,None,0,32,32,32,,1,1,0.38957622300222283,go,0.15000000000000002,1.283,2.283,004,Scanner,R,1,2019_Sep_07_0945,SST,3.0.7,60.25084753567052,
go,sst_images/Right_Arrow.bmp,None,2,1053,None,0,33,33,33,,2,1,0.38991655800055014,go,0.15000000000000002,1.053,2.053,004,Scanner,R,1,2019_Sep_07_0945,SST,3.0.7,60.25084753567052,
stop,sst_images/Right_Arrow.bmp,sst_images/Stop_Arrow.bmp,none,913,None,0,34,34,34,,None,1,,stop,0.2,0.913,1.913,004,Scanner,R,1,2019_Sep_07_0945,SST,3.0.7,60.25084753567052,
go,sst_images/Left_Arrow.bmp,None,1,717,None,0,35,35,35,,1,1,0.38658022199524567,go,0.2,0.717,1.717,004,Scanner,R,1,2019_Sep_07_0945,SST,3.0.7,60.25084753567052,
go,sst_images/Left_Arrow.bmp,None,1,756,None,0,36,36,36,,1,1,0.437683896998351,go,0.2,0.756,1.756,004,Scanner,R,1,2019_Sep_07_0945,SST,3.0.7,60.25084753567052,
go,sst_images/Right_Arrow.bmp,None,2,881,None,0,37,37,37,,2,1,0.42254775800392963,go,0.2,0.881,1.881,004,Scanner,R,1,2019_Sep_07_0945,SST,3.0.7,60.25084753567052,
stop,sst_images/Right_Arrow.bmp,sst_images/Stop_Arrow.bmp,none,751,None,0,38,38,38,,2,0,0.4863630409963662,stop,0.15000000000000002,0.751,1.7646369590036337,004,Scanner,R,1,2019_Sep_07_0945,SST,3.0.7,60.25084753567052,
go,sst_images/Right_Arrow.bmp,None,2,846,None,0,39,39,39,,2,1,0.42149174000223866,go,0.15000000000000002,0.846,1.846,004,Scanner,R,1,2019_Sep_07_0945,SST,3.0.7,60.25084753567052,
go,sst_images/Left_Arrow.bmp,None,1,795,None,0,40,40,40,,1,1,0.4192946480034152,go,0.15000000000000002,0.795,1.795,004,Scanner,R,1,2019_Sep_07_0945,SST,3.0.7,60.25084753567052,
stop,sst_images/Left_Arrow.bmp,sst_images/Stop_Arrow.bmp,none,710,None,0,41,41,41,,None,1,,stop,0.2,0.71,1.7099999999999997,004,Scanner,R,1,2019_Sep_07_0945,SST,3.0.7,60.25084753567052,
go,sst_images/Left_Arrow.bmp,None,1,840,None,0,42,42,42,,1,1,0.422089819003304,go,0.2,0.84,1.8399999999999999,004,Scanner,R,1,2019_Sep_07_0945,SST,3.0.7,60.25084753567052,
go,sst_images/Right_Arrow.bmp,None,2,725,None,0,43,43,43,,2,1,0.45513834699522704,go,0.2,0.725,1.725,004,Scanner,R,1,2019_Sep_07_0945,SST,3.0.7,60.25084753567052,
go,sst_images/Left_Arrow.bmp,None,1,893,None,0,44,44,44,,1,1,0.4555613570046262,go,0.2,0.893,1.893,004,Scanner,R,1,2019_Sep_07_0945,SST,3.0.7,60.25084753567052,
go,sst_images/Left_Arrow.bmp,None,1,1017,None,0,45,45,45,,1,1,0.5870715520068188,go,0.2,1.017,2.017,004,Scanner,R,1,2019_Sep_07_0945,SST,3.0.7,60.25084753567052,
go,sst_images/Right_Arrow.bmp,None,2,789,None,0,46,46,46,,2,1,0.38780924499587854,go,0.2,0.789,1.7890000000000001,004,Scanner,R,1,2019_Sep_07_0945,SST,3.0.7,60.25084753567052,
go,sst_images/Right_Arrow.bmp,None,2,746,None,0,47,47,47,,2,1,0.5684189660023549,go,0.2,0.746,1.746,004,Scanner,R,1,2019_Sep_07_0945,SST,3.0.7,60.25084753567052,
go,sst_images/Right_Arrow.bmp,None,2,1229,None,0,48,48,48,,2,1,0.35458006199769443,go,0.2,1.229,2.229,004,Scanner,R,1,2019_Sep_07_0945,SST,3.0.7,60.25084753567052,
go,sst_images/Left_Arrow.bmp,None,1,979,None,0,49,49,49,,1,1,0.5173864750031498,go,0.2,0.979,1.979,004,Scanner,R,1,2019_Sep_07_0945,SST,3.0.7,60.25084753567052,
go,sst_images/Left_Arrow.bmp,None,1,704,None,0,50,50,50,,1,1,0.4371156150009483,go,0.2,0.704,1.704,004,Scanner,R,1,2019_Sep_07_0945,SST,3.0.7,60.25084753567052,
go,sst_images/Left_Arrow.bmp,None,1,787,None,0,51,51,51,,2,0,0.4041616739996243,go,0.2,0.787,1.787,004,Scanner,R,1,2019_Sep_07_0945,SST,3.0.7,60.25084753567052,
stop,sst_images/Right_Arrow.bmp,sst_images/Stop_Arrow.bmp,none,817,None,0,52,52,52,,2,0,0.41971652299980633,stop,0.15000000000000002,0.817,1.8972834770001936,004,Scanner,R,1,2019_Sep_07_0945,SST,3.0.7,60.25084753567052,
go,sst_images/Right_Arrow.bmp,None,2,820,None,0,53,53,53,,2,1,0.43830545299715595,go,0.15000000000000002,0.82,1.8199999999999998,004,Scanner,R,1,2019_Sep_07_0945,SST,3.0.7,60.25084753567052,
go,sst_images/Right_Arrow.bmp,None,2,828,None,0,54,54,54,,2,1,0.4021706620042096,go,0.15000000000000002,0.828,1.8279999999999998,004,Scanner,R,1,2019_Sep_07_0945,SST,3.0.7,60.25084753567052,
go,sst_images/Left_Arrow.bmp,None,1,1014,None,0,55,55,55,,1,1,0.38644175700028427,go,0.15000000000000002,1.014,2.0140000000000002,004,Scanner,R,1,2019_Sep_07_0945,SST,3.0.7,60.25084753567052,
go,sst_images/Left_Arrow.bmp,None,1,703,None,0,56,56,56,,1,1,0.4368367089991807,go,0.15000000000000002,0.703,1.7029999999999998,004,Scanner,R,1,2019_Sep_07_0945,SST,3.0.7,60.25084753567052,
go,sst_images/Left_Arrow.bmp,None,1,1278,None,0,57,57,57,,1,1,0.4204382180032553,go,0.15000000000000002,1.278,2.278,004,Scanner,R,1,2019_Sep_07_0945,SST,3.0.7,60.25084753567052,
go,sst_images/Right_Arrow.bmp,None,2,1397,None,0,58,58,58,,2,1,0.35307229599857237,go,0.15000000000000002,1.397,2.3970000000000002,004,Scanner,R,1,2019_Sep_07_0945,SST,3.0.7,60.25084753567052,
stop,sst_images/Left_Arrow.bmp,sst_images/Stop_Arrow.bmp,none,898,None,0,59,59,59,,None,1,,stop,0.2,0.898,1.898,004,Scanner,R,1,2019_Sep_07_0945,SST,3.0.7,60.25084753567052,
go,sst_images/Left_Arrow.bmp,None,1,1062,None,0,60,60,60,,1,1,0.40189035100047477,go,0.2,1.062,2.0620000000000003,004,Scanner,R,1,2019_Sep_07_0945,SST,3.0.7,60.25084753567052,
go,sst_images/Left_Arrow.bmp,None,1,850,None,0,61,61,61,,1,1,0.4203386759982095,go,0.2,0.85,1.85,004,Scanner,R,1,2019_Sep_07_0945,SST,3.0.7,60.25084753567052,
go,sst_images/Right_Arrow.bmp,None,2,795,None,0,62,62,62,,2,1,0.3199464770004852,go,0.2,0.795,1.795,004,Scanner,R,1,2019_Sep_07_0945,SST,3.0.7,60.25084753567052,
go,sst_images/Right_Arrow.bmp,None,2,843,None,0,63,63,63,,2,1,0.43767706400103634,go,0.2,0.843,1.843,004,Scanner,R,1,2019_Sep_07_0945,SST,3.0.7,60.25084753567052,
go,sst_images/Left_Arrow.bmp,None,1,954,None,0,64,64,64,,1,1,0.5213017909991322,go,0.2,0.954,1.954,004,Scanner,R,1,2019_Sep_07_0945,SST,3.0.7,60.25084753567052,
go,sst_images/Right_Arrow.bmp,None,2,814,None,0,65,65,65,,2,1,0.3700332750013331,go,0.2,0.814,1.814,004,Scanner,R,1,2019_Sep_07_0945,SST,3.0.7,60.25084753567052,
stop,sst_images/Right_Arrow.bmp,sst_images/Stop_Arrow.bmp,none,761,None,0,66,66,66,,None,1,,stop,0.25,0.761,1.761,004,Scanner,R,1,2019_Sep_07_0945,SST,3.0.7,60.25084753567052,
go,sst_images/Left_Arrow.bmp,None,1,936,None,0,67,67,67,,1,1,0.6043986560034682,go,0.25,0.936,1.936,004,Scanner,R,1,2019_Sep_07_0945,SST,3.0.7,60.25084753567052,
go,sst_images/Right_Arrow.bmp,None,2,835,None,0,68,68,68,,2,1,0.3699218000037945,go,0.25,0.835,1.835,004,Scanner,R,1,2019_Sep_07_0945,SST,3.0.7,60.25084753567052,
go,sst_images/Right_Arrow.bmp,None,2,720,None,0,69,69,69,,2,1,0.3730323560012039,go,0.25,0.72,1.72,004,Scanner,R,1,2019_Sep_07_0945,SST,3.0.7,60.25084753567052,
go,sst_images/Left_Arrow.bmp,None,1,898,None,0,70,70,70,,1,1,0.4376873200017144,go,0.25,0.898,1.8980000000000001,004,Scanner,R,1,2019_Sep_07_0945,SST,3.0.7,60.25084753567052,
go,sst_images/Right_Arrow.bmp,None,2,894,None,0,71,71,71,,2,1,0.4023229719969095,go,0.25,0.894,1.8940000000000001,004,Scanner,R,1,2019_Sep_07_0945,SST,3.0.7,60.25084753567052,
go,sst_images/Left_Arrow.bmp,None,1,718,None,0,72,72,72,,1,1,0.6388388260020292,go,0.25,0.718,1.718,004,Scanner,R,1,2019_Sep_07_0945,SST,3.0.7,60.25084753567052,
stop,sst_images/Right_Arrow.bmp,sst_images/Stop_Arrow.bmp,none,902,None,0,73,73,73,,2,0,0.3698129100012011,stop,0.2,0.902,2.082187089998799,004,Scanner,R,1,2019_Sep_07_0945,SST,3.0.7,60.25084753567052,
go,sst_images/Right_Arrow.bmp,None,2,782,None,0,74,74,74,,2,1,0.3878165429996443,go,0.2,0.782,1.782,004,Scanner,R,1,2019_Sep_07_0945,SST,3.0.7,60.25084753567052,
go,sst_images/Left_Arrow.bmp,None,1,950,None,0,75,75,75,,1,1,0.5042515700042713,go,0.2,0.95,1.95,004,Scanner,R,1,2019_Sep_07_0945,SST,3.0.7,60.25084753567052,
go,sst_images/Right_Arrow.bmp,None,2,967,None,0,76,76,76,,2,1,0.40499689500575187,go,0.2,0.967,1.967,004,Scanner,R,1,2019_Sep_07_0945,SST,3.0.7,60.25084753567052,
go,sst_images/Right_Arrow.bmp,None,2,875,None,0,77,77,77,,2,1,0.5364348699949915,go,0.2,0.875,1.875,004,Scanner,R,1,2019_Sep_07_0945,SST,3.0.7,60.25084753567052,
go,sst_images/Left_Arrow.bmp,None,1,1126,None,0,78,78,78,,1,1,0.6058497150006588,go,0.2,1.126,2.126,004,Scanner,R,1,2019_Sep_07_0945,SST,3.0.7,60.25084753567052,
go,sst_images/Left_Arrow.bmp,None,1,753,None,0,79,79,79,,1,1,0.7380308740030159,go,0.2,0.753,1.7530000000000001,004,Scanner,R,1,2019_Sep_07_0945,SST,3.0.7,60.25084753567052,
stop,sst_images/Left_Arrow.bmp,sst_images/Stop_Arrow.bmp,none,761,None,0,80,80,80,,None,1,,stop,0.25,0.761,1.761,004,Scanner,R,1,2019_Sep_07_0945,SST,3.0.7,60.25084753567052,
go,sst_images/Right_Arrow.bmp,None,2,731,None,0,81,81,81,,2,1,0.3532137829970452,go,0.25,0.731,1.7309999999999999,004,Scanner,R,1,2019_Sep_07_0945,SST,3.0.7,60.25084753567052,
go,sst_images/Right_Arrow.bmp,None,2,751,None,0,82,82,82,,2,1,0.48462985800142633,go,0.25,0.751,1.751,004,Scanner,R,1,2019_Sep_07_0945,SST,3.0.7,60.25084753567052,
go,sst_images/Right_Arrow.bmp,None,2,806,None,0,83,83,83,,2,1,0.4545863560051657,go,0.25,0.806,1.806,004,Scanner,R,1,2019_Sep_07_0945,SST,3.0.7,60.25084753567052,
go,sst_images/Left_Arrow.bmp,None,1,706,None,0,84,84,84,,1,1,0.45444015599787235,go,0.25,0.706,1.706,004,Scanner,R,1,2019_Sep_07_0945,SST,3.0.7,60.25084753567052,
stop,sst_images/Right_Arrow.bmp,sst_images/Stop_Arrow.bmp,none,713,None,0,85,85,85,,2,0,0.40230272299959324,stop,0.2,0.713,1.8606972770004069,004,Scanner,R,1,2019_Sep_07_0945,SST,3.0.7,60.25084753567052,
go,sst_images/Left_Arrow.bmp,None,1,743,None,0,86,86,86,,1,1,0.4376676929969108,go,0.2,0.743,1.7429999999999999,004,Scanner,R,1,2019_Sep_07_0945,SST,3.0.7,60.25084753567052,
go,sst_images/Right_Arrow.bmp,None,2,700,None,0,87,87,87,,2,1,0.4513930370012531,go,0.2,0.7,1.7,004,Scanner,R,1,2019_Sep_07_0945,SST,3.0.7,60.25084753567052,
go,sst_images/Left_Arrow.bmp,None,1,706,None,0,88,88,88,,1,1,0.3716710169974249,go,0.2,0.706,1.706,004,Scanner,R,1,2019_Sep_07_0945,SST,3.0.7,60.25084753567052,
stop,sst_images/Right_Arrow.bmp,sst_images/Stop_Arrow.bmp,none,746,None,0,89,89,89,,2,0,0.36247626400290756,stop,0.15000000000000002,0.746,1.8835237359970924,004,Scanner,R,1,2019_Sep_07_0945,SST,3.0.7,60.25084753567052,
go,sst_images/Right_Arrow.bmp,None,2,755,None,0,90,90,90,,2,1,0.4046495419970597,go,0.15000000000000002,0.755,1.755,004,Scanner,R,1,2019_Sep_07_0945,SST,3.0.7,60.25084753567052,
go,sst_images/Left_Arrow.bmp,None,1,726,None,0,91,91,91,,1,1,0.6884777360028238,go,0.15000000000000002,0.726,1.726,004,Scanner,R,1,2019_Sep_07_0945,SST,3.0.7,60.25084753567052,
go,sst_images/Right_Arrow.bmp,None,2,896,None,0,92,92,92,,2,1,0.4855058769971947,go,0.15000000000000002,0.896,1.896,004,Scanner,R,1,2019_Sep_07_0945,SST,3.0.7,60.25084753567052,
go,sst_images/Left_Arrow.bmp,None,1,902,None,0,93,93,93,,1,1,0.4213588130005519,go,0.15000000000000002,0.902,1.9020000000000001,004,Scanner,R,1,2019_Sep_07_0945,SST,3.0.7,60.25084753567052,
go,sst_images/Left_Arrow.bmp,None,1,1152,None,0,94,94,94,,1,1,0.43666662400210043,go,0.15000000000000002,1.152,2.152,004,Scanner,R,1,2019_Sep_07_0945,SST,3.0.7,60.25084753567052,
go,sst_images/Left_Arrow.bmp,None,1,817,None,0,95,95,95,,1,1,0.42124426100053824,go,0.15000000000000002,0.817,1.817,004,Scanner,R,1,2019_Sep_07_0945,SST,3.0.7,60.25084753567052,
go,sst_images/Right_Arrow.bmp,None,2,1072,None,0,96,96,96,,2,1,0.41920484099682653,go,0.15000000000000002,1.072,2.072,004,Scanner,R,1,2019_Sep_07_0945,SST,3.0.7,60.25084753567052,
go,sst_images/Left_Arrow.bmp,None,1,1449,None,0,97,97,97,,1,1,0.45477585199841997,go,0.15000000000000002,1.449,2.449,004,Scanner,R,1,2019_Sep_07_0945,SST,3.0.7,60.25084753567052,
stop,sst_images/Left_Arrow.bmp,sst_images/Stop_Arrow.bmp,none,763,None,0,98,98,98,,None,1,,stop,0.2,0.763,1.7630000000000001,004,Scanner,R,1,2019_Sep_07_0945,SST,3.0.7,60.25084753567052,
go,sst_images/Right_Arrow.bmp,None,2,909,None,0,99,99,99,,2,1,0.4568300819955766,go,0.2,0.909,1.909,004,Scanner,R,1,2019_Sep_07_0945,SST,3.0.7,60.25084753567052,
go,sst_images/Right_Arrow.bmp,None,2,756,None,0,100,100,100,,2,1,0.38537503899715375,go,0.2,0.756,1.756,004,Scanner,R,1,2019_Sep_07_0945,SST,3.0.7,60.25084753567052,
stop,sst_images/Left_Arrow.bmp,sst_images/Stop_Arrow.bmp,none,802,None,0,101,101,101,,None,1,,stop,0.25,0.802,1.802,004,Scanner,R,1,2019_Sep_07_0945,SST,3.0.7,60.25084753567052,
go,sst_images/Left_Arrow.bmp,None,1,748,None,0,102,102,102,,1,1,0.5213159200066002,go,0.25,0.748,1.748,004,Scanner,R,1,2019_Sep_07_0945,SST,3.0.7,60.25084753567052,
go,sst_images/Right_Arrow.bmp,None,2,810,None,0,103,103,103,,2,1,0.3022321659955196,go,0.25,0.81,1.81,004,Scanner,R,1,2019_Sep_07_0945,SST,3.0.7,60.25084753567052,
go,sst_images/Right_Arrow.bmp,None,2,817,None,0,104,104,104,,2,1,0.41216480799630517,go,0.25,0.817,1.817,004,Scanner,R,1,2019_Sep_07_0945,SST,3.0.7,60.25084753567052,
stop,sst_images/Right_Arrow.bmp,sst_images/Stop_Arrow.bmp,none,760,None,0,105,105,105,,2,0,0.4022488929986139,stop,0.2,0.76,1.9077511070013862,004,Scanner,R,1,2019_Sep_07_0945,SST,3.0.7,60.25084753567052,
go,sst_images/Left_Arrow.bmp,None,1,933,None,0,106,106,106,,1,1,0.37937886999861803,go,0.2,0.933,1.933,004,Scanner,R,1,2019_Sep_07_0945,SST,3.0.7,60.25084753567052,
go,sst_images/Left_Arrow.bmp,None,1,776,None,0,107,107,107,,1,1,0.4463827380022849,go,0.2,0.776,1.776,004,Scanner,R,1,2019_Sep_07_0945,SST,3.0.7,60.25084753567052,
go,sst_images/Right_Arrow.bmp,None,2,761,None,0,108,108,108,,2,1,0.37930961300298804,go,0.2,0.761,1.7610000000000001,004,Scanner,R,1,2019_Sep_07_0945,SST,3.0.7,60.25084753567052,
go,sst_images/Right_Arrow.bmp,None,2,1152,None,0,109,109,109,,2,1,0.3609091920006904,go,0.2,1.152,2.152,004,Scanner,R,1,2019_Sep_07_0945,SST,3.0.7,60.25084753567052,
go,sst_images/Left_Arrow.bmp,None,1,714,None,0,110,110,110,,1,1,0.577793370001018,go,0.2,0.714,1.714,004,Scanner,R,1,2019_Sep_07_0945,SST,3.0.7,60.25084753567052,
go,sst_images/Right_Arrow.bmp,None,2,702,None,0,111,111,111,,2,1,0.3436382260042592,go,0.2,0.702,1.702,004,Scanner,R,1,2019_Sep_07_0945,SST,3.0.7,60.25084753567052,
stop,sst_images/Left_Arrow.bmp,sst_images/Stop_Arrow.bmp,none,702,None,0,112,112,112,,1,0,0.38657302500359947,stop,0.15000000000000002,0.702,1.8154269749964005,004,Scanner,R,1,2019_Sep_07_0945,SST,3.0.7,60.25084753567052,
go,sst_images/Left_Arrow.bmp,None,1,708,None,0,113,113,113,,2,0,0.2764472510025371,go,0.15000000000000002,0.708,1.708,004,Scanner,R,1,2019_Sep_07_0945,SST,3.0.7,60.25084753567052,
go,sst_images/Right_Arrow.bmp,None,2,736,None,0,114,114,114,,2,1,0.5045627910003532,go,0.15000000000000002,0.736,1.736,004,Scanner,R,1,2019_Sep_07_0945,SST,3.0.7,60.25084753567052,
go,sst_images/Left_Arrow.bmp,None,1,782,None,0,115,115,115,,1,1,0.3785603690048447,go,0.15000000000000002,0.782,1.782,004,Scanner,R,1,2019_Sep_07_0945,SST,3.0.7,60.25084753567052,
go,sst_images/Right_Arrow.bmp,None,2,775,None,0,116,116,116,,2,1,0.3543216200050665,go,0.15000000000000002,0.775,1.775,004,Scanner,R,1,2019_Sep_07_0945,SST,3.0.7,60.25084753567052,
go,sst_images/Left_Arrow.bmp,None,1,979,None,0,117,117,117,,1,1,0.3321564229991054,go,0.15000000000000002,0.979,1.979,004,Scanner,R,1,2019_Sep_07_0945,SST,3.0.7,60.25084753567052,
go,sst_images/Right_Arrow.bmp,None,2,813,None,0,118,118,118,,2,1,0.3420281060025445,go,0.15000000000000002,0.813,1.813,004,Scanner,R,1,2019_Sep_07_0945,SST,3.0.7,60.25084753567052,
stop,sst_images/Left_Arrow.bmp,sst_images/Stop_Arrow.bmp,none,937,None,0,119,119,119,,None,1,,stop,0.2,0.937,1.937,004,Scanner,R,1,2019_Sep_07_0945,SST,3.0.7,60.25084753567052,
go,sst_images/Left_Arrow.bmp,None,1,757,None,0,120,120,120,,1,1,0.3694464970030822,go,0.2,0.757,1.7570000000000001,004,Scanner,R,1,2019_Sep_07_0945,SST,3.0.7,60.25084753567052,
go,sst_images/Right_Arrow.bmp,None,2,715,None,0,121,121,121,,2,1,0.35960524099937174,go,0.2,0.715,1.7149999999999999,004,Scanner,R,1,2019_Sep_07_0945,SST,3.0.7,60.25084753567052,
go,sst_images/Left_Arrow.bmp,None,1,722,None,0,122,122,122,,1,1,0.46190639799897326,go,0.2,0.722,1.722,004,Scanner,R,1,2019_Sep_07_0945,SST,3.0.7,60.25084753567052,
go,sst_images/Right_Arrow.bmp,None,2,762,None,0,123,123,123,,2,1,0.3442629390046932,go,0.2,0.762,1.762,004,Scanner,R,1,2019_Sep_07_0945,SST,3.0.7,60.25084753567052,
stop,sst_images/Right_Arrow.bmp,sst_images/Stop_Arrow.bmp,none,702,None,0,124,124,124,,1,0,0.30467377500463044,stop,0.15000000000000002,0.702,1.8973262249953695,004,Scanner,R,1,2019_Sep_07_0945,SST,3.0.7,60.25084753567052,
go,sst_images/Right_Arrow.bmp,None,2,789,None,0,125,125,125,,2,1,0.35907364999729907,go,0.15000000000000002,0.789,1.7890000000000001,004,Scanner,R,1,2019_Sep_07_0945,SST,3.0.7,60.25084753567052,
go,sst_images/Left_Arrow.bmp,None,1,851,None,0,126,126,126,,1,1,0.37501707199407974,go,0.15000000000000002,0.851,1.851,004,Scanner,R,1,2019_Sep_07_0945,SST,3.0.7,60.25084753567052,
go,sst_images/Left_Arrow.bmp,None,1,824,None,0,127,127,127,,1,1,0.42152544400596526,go,0.15000000000000002,0.824,1.8239999999999998,004,Scanner,R,1,2019_Sep_07_0945,SST,3.0.7,60.25084753567052,
go,sst_images/Left_Arrow.bmp,None,1,1225,None,0,128,128,128,,1,1,0.41879164300189586,go,0.15000000000000002,1.225,2.225,004,Scanner,R,1,2019_Sep_07_0945,SST,3.0.7,60.25084753567052,
stop,sst_images/Left_Arrow.bmp,sst_images/Stop_Arrow.bmp,none,783,None,0,129,129,129,,1,0,0.40540948099805973,stop,0.10000000000000002,0.783,1.8275905190019401,004,Scanner,R,1,2019_Sep_07_0945,SST,3.0.7,60.25084753567052,
go,sst_images/Right_Arrow.bmp,None,2,1230,None,0,130,130,130,,2,1,0.44188222399679944,go,0.10000000000000002,1.23,2.23,004,Scanner,R,1,2019_Sep_07_0945,SST,3.0.7,60.25084753567052,
go,sst_images/Left_Arrow.bmp,None,1,751,None,0,131,131,131,,1,1,0.7426468089979608,go,0.10000000000000002,0.751,1.751,004,Scanner,R,1,2019_Sep_07_0945,SST,3.0.7,60.25084753567052,
go,sst_images/Left_Arrow.bmp,None,1,974,None,0,132,132,132,,1,1,0.4413054340038798,go,0.10000000000000002,0.974,1.974,004,Scanner,R,1,2019_Sep_07_0945,SST,3.0.7,60.25084753567052,
go,sst_images/Left_Arrow.bmp,None,1,1142,None,0,133,133,133,,1,1,0.3736617879985715,go,0.10000000000000002,1.142,2.142,004,Scanner,R,1,2019_Sep_07_0945,SST,3.0.7,60.25084753567052,
go,sst_images/Right_Arrow.bmp,None,2,709,None,0,134,134,134,,2,1,0.3583481239984394,go,0.10000000000000002,0.709,1.709,004,Scanner,R,1,2019_Sep_07_0945,SST,3.0.7,60.25084753567052,
stop,sst_images/Right_Arrow.bmp,sst_images/Stop_Arrow.bmp,none,792,None,0,135,135,135,,None,1,,stop,0.15000000000000002,0.792,1.792,004,Scanner,R,1,2019_Sep_07_0945,SST,3.0.7,60.25084753567052,
go,sst_images/Left_Arrow.bmp,None,1,704,None,0,136,136,136,,1,1,0.42686940099520143,go,0.15000000000000002,0.704,1.704,004,Scanner,R,1,2019_Sep_07_0945,SST,3.0.7,60.25084753567052,
go,sst_images/Left_Arrow.bmp,None,1,756,None,0,137,137,137,,1,1,0.37100772100529866,go,0.15000000000000002,0.756,1.756,004,Scanner,R,1,2019_Sep_07_0945,SST,3.0.7,60.25084753567052,
go,sst_images/Right_Arrow.bmp,None,2,805,None,0,138,138,138,,2,1,0.3751500349972048,go,0.15000000000000002,0.805,1.8050000000000002,004,Scanner,R,1,2019_Sep_07_0945,SST,3.0.7,60.25084753567052,
go,sst_images/Right_Arrow.bmp,None,2,750,None,0,139,139,139,,2,1,0.4682968649940449,go,0.15000000000000002,0.75,1.75,004,Scanner,R,1,2019_Sep_07_0945,SST,3.0.7,60.25084753567052,
go,sst_images/Left_Arrow.bmp,None,1,792,None,0,140,140,140,,1,1,0.47465992100478616,go,0.15000000000000002,0.792,1.792,004,Scanner,R,1,2019_Sep_07_0945,SST,3.0.7,60.25084753567052,
go,sst_images/Right_Arrow.bmp,None,2,984,None,0,141,141,141,,2,1,0.4754494130029343,go,0.15000000000000002,0.984,1.984,004,Scanner,R,1,2019_Sep_07_0945,SST,3.0.7,60.25084753567052,
go,sst_images/Left_Arrow.bmp,None,1,1520,None,0,142,142,142,,1,1,0.35828406100335997,go,0.15000000000000002,1.52,2.52,004,Scanner,R,1,2019_Sep_07_0945,SST,3.0.7,60.25084753567052,
go,sst_images/Left_Arrow.bmp,None,1,946,None,0,143,143,143,,1,1,0.4564678110036766,go,0.15000000000000002,0.946,1.946,004,Scanner,R,1,2019_Sep_07_0945,SST,3.0.7,60.25084753567052,
go,sst_images/Right_Arrow.bmp,None,2,723,None,0,144,144,144,,2,1,0.3920731840044027,go,0.15000000000000002,0.723,1.7229999999999999,004,Scanner,R,1,2019_Sep_07_0945,SST,3.0.7,60.25084753567052,
go,sst_images/Left_Arrow.bmp,None,1,746,None,0,145,145,145,,1,1,0.49102202899666736,go,0.15000000000000002,0.746,1.746,004,Scanner,R,1,2019_Sep_07_0945,SST,3.0.7,60.25084753567052,
stop,sst_images/Right_Arrow.bmp,sst_images/Stop_Arrow.bmp,none,757,None,0,146,146,146,,None,1,,stop,0.2,0.757,1.757,004,Scanner,R,1,2019_Sep_07_0945,SST,3.0.7,60.25084753567052,
go,sst_images/Right_Arrow.bmp,None,2,705,None,0,147,147,147,,2,1,0.45811792599852197,go,0.2,0.705,1.705,004,Scanner,R,1,2019_Sep_07_0945,SST,3.0.7,60.25084753567052,
go,sst_images/Left_Arrow.bmp,None,1,762,None,0,148,148,148,,1,1,0.38834412099822657,go,0.2,0.762,1.762,004,Scanner,R,1,2019_Sep_07_0945,SST,3.0.7,60.25084753567052,
go,sst_images/Right_Arrow.bmp,None,2,922,None,0,149,149,149,,2,1,0.557752883003559,go,0.2,0.922,1.9220000000000002,004,Scanner,R,1,2019_Sep_07_0945,SST,3.0.7,60.25084753567052,
go,sst_images/Right_Arrow.bmp,None,2,735,None,0,150,150,150,,2,1,0.40677143900393276,go,0.2,0.735,1.7349999999999999,004,Scanner,R,1,2019_Sep_07_0945,SST,3.0.7,60.25084753567052,
go,sst_images/Left_Arrow.bmp,None,1,786,None,0,151,151,151,,1,1,0.5714521080008126,go,0.2,0.786,1.786,004,Scanner,R,1,2019_Sep_07_0945,SST,3.0.7,60.25084753567052,
stop,sst_images/Left_Arrow.bmp,sst_images/Stop_Arrow.bmp,none,1283,None,0,152,152,152,,None,1,,stop,0.25,1.283,2.283,004,Scanner,R,1,2019_Sep_07_0945,SST,3.0.7,60.25084753567052,
go,sst_images/Right_Arrow.bmp,None,2,807,None,0,153,153,153,,2,1,0.519944255000155,go,0.25,0.807,1.807,004,Scanner,R,1,2019_Sep_07_0945,SST,3.0.7,60.25084753567052,
go,sst_images/Left_Arrow.bmp,None,1,739,None,0,154,154,154,,1,1,0.554489255999215,go,0.25,0.739,1.7389999999999999,004,Scanner,R,1,2019_Sep_07_0945,SST,3.0.7,60.25084753567052,
go,sst_images/Right_Arrow.bmp,None,2,932,None,0,155,155,155,,2,1,0.5371797049956513,go,0.25,0.932,1.932,004,Scanner,R,1,2019_Sep_07_0945,SST,3.0.7,60.25084753567052,
go,sst_images/Left_Arrow.bmp,None,1,1131,None,0,156,156,156,,1,1,0.6868800369993551,go,0.25,1.131,2.1310000000000002,004,Scanner,R,1,2019_Sep_07_0945,SST,3.0.7,60.25084753567052,
go,sst_images/Right_Arrow.bmp,None,2,702,None,0,157,157,157,,2,1,0.6373910930051352,go,0.25,0.702,1.702,004,Scanner,R,1,2019_Sep_07_0945,SST,3.0.7,60.25084753567052,
stop,sst_images/Left_Arrow.bmp,sst_images/Stop_Arrow.bmp,none,795,None,0,158,158,158,,1,0,0.3873793230013689,stop,0.2,0.795,1.957620676998631,004,Scanner,R,1,2019_Sep_07_0945,SST,3.0.7,60.25084753567052,
go,sst_images/Left_Arrow.bmp,None,1,1131,None,0,159,159,159,,2,0,0.4207675619982183,go,0.2,1.131,2.1310000000000002,004,Scanner,R,1,2019_Sep_07_0945,SST,3.0.7,60.25084753567052,
go,sst_images/Left_Arrow.bmp,None,1,748,None,0,160,160,160,,1,1,0.4217726619972382,go,0.2,0.748,1.748,004,Scanner,R,1,2019_Sep_07_0945,SST,3.0.7,60.25084753567052,
go,sst_images/Right_Arrow.bmp,None,2,1186,None,0,161,161,161,,2,1,0.3540747180013568,go,0.2,1.186,2.186,004,Scanner,R,1,2019_Sep_07_0945,SST,3.0.7,60.25084753567052,
go,sst_images/Left_Arrow.bmp,None,1,891,None,0,162,162,162,,1,1,0.48851393299992196,go,0.2,0.891,1.891,004,Scanner,R,1,2019_Sep_07_0945,SST,3.0.7,60.25084753567052,
go,sst_images/Right_Arrow.bmp,None,2,784,None,0,163,163,163,,2,1,0.357305459001509,go,0.2,0.784,1.784,004,Scanner,R,1,2019_Sep_07_0945,SST,3.0.7,60.25084753567052,
go,sst_images/Right_Arrow.bmp,None,2,928,None,0,164,164,164,,2,1,0.4377091959977406,go,0.2,0.928,1.928,004,Scanner,R,1,2019_Sep_07_0945,SST,3.0.7,60.25084753567052,
go,sst_images/Right_Arrow.bmp,None,2,953,None,0,165,165,165,,2,1,0.3886527680006111,go,0.2,0.953,1.9529999999999998,004,Scanner,R,1,2019_Sep_07_0945,SST,3.0.7,60.25084753567052,
go,sst_images/Left_Arrow.bmp,None,1,763,None,0,166,166,166,,1,1,0.8872296799963806,go,0.2,0.763,1.763,004,Scanner,R,1,2019_Sep_07_0945,SST,3.0.7,60.25084753567052,
go,sst_images/Right_Arrow.bmp,None,2,1146,None,0,167,167,167,,2,1,0.38816540100378916,go,0.2,1.146,2.146,004,Scanner,R,1,2019_Sep_07_0945,SST,3.0.7,60.25084753567052,
go,sst_images/Right_Arrow.bmp,None,2,808,None,0,168,168,168,,1,0,0.3566316939977696,go,0.2,0.808,1.808,004,Scanner,R,1,2019_Sep_07_0945,SST,3.0.7,60.25084753567052,
stop,sst_images/Left_Arrow.bmp,sst_images/Stop_Arrow.bmp,none,885,None,0,169,169,169,,1,0,0.37171483999554766,stop,0.15000000000000002,0.885,2.013285160004452,004,Scanner,R,1,2019_Sep_07_0945,SST,3.0.7,60.25084753567052,
go,sst_images/Left_Arrow.bmp,None,1,935,None,0,170,170,170,,1,1,0.40620818699972006,go,0.15000000000000002,0.935,1.935,004,Scanner,R,1,2019_Sep_07_0945,SST,3.0.7,60.25084753567052,
go,sst_images/Right_Arrow.bmp,None,2,1302,None,0,171,171,171,,2,1,0.3727912530011963,go,0.15000000000000002,1.302,2.302,004,Scanner,R,1,2019_Sep_07_0945,SST,3.0.7,60.25084753567052,
go,sst_images/Right_Arrow.bmp,None,2,859,None,0,172,172,172,,2,1,0.42000176000146894,go,0.15000000000000002,0.859,1.859,004,Scanner,R,1,2019_Sep_07_0945,SST,3.0.7,60.25084753567052,
go,sst_images/Right_Arrow.bmp,None,2,1110,None,0,173,173,173,,2,1,0.455526703997748,go,0.15000000000000002,1.11,2.1100000000000003,004,Scanner,R,1,2019_Sep_07_0945,SST,3.0.7,60.25084753567052,
go,sst_images/Left_Arrow.bmp,None,1,725,None,0,174,174,174,,1,1,0.5188513519970002,go,0.15000000000000002,0.725,1.725,004,Scanner,R,1,2019_Sep_07_0945,SST,3.0.7,60.25084753567052,
go,sst_images/Right_Arrow.bmp,None,2,831,None,0,175,175,175,,2,1,0.554240845995082,go,0.15000000000000002,0.831,1.831,004,Scanner,R,1,2019_Sep_07_0945,SST,3.0.7,60.25084753567052,
stop,sst_images/Right_Arrow.bmp,sst_images/Stop_Arrow.bmp,none,922,None,0,176,176,176,,1,0,0.3892412069981219,stop,0.10000000000000002,0.922,1.9827587930018782,004,Scanner,R,1,2019_Sep_07_0945,SST,3.0.7,60.25084753567052,
go,sst_images/Left_Arrow.bmp,None,1,771,None,0,177,177,177,,1,1,0.37017078299686546,go,0.10000000000000002,0.771,1.771,004,Scanner,R,1,2019_Sep_07_0945,SST,3.0.7,60.25084753567052,
go,sst_images/Right_Arrow.bmp,None,2,704,None,0,178,178,178,,2,1,0.4046785889950115,go,0.10000000000000002,0.704,1.704,004,Scanner,R,1,2019_Sep_07_0945,SST,3.0.7,60.25084753567052,
stop,sst_images/Left_Arrow.bmp,sst_images/Stop_Arrow.bmp,none,946,8817.0,0,179,179,179,,None,1,,stop,0.15000000000000002,0.946,1.946,004,Scanner,R,1,2019_Sep_07_0945,SST,3.0.7,60.25084753567052,
