trial_type,arrow_1,arrow_2,corrAns,jitter,run_end_fixation,trials.thisRepN,trials.thisTrialN,trials.thisN,trials.thisIndex,randomized TrialOrder,key_response.keys,key_response.corr,key_response.rt,trial_t.routineEndVal,ss_delay,iti_duration,SOA,participant,prac_or_scan,handedness,run,date,expName,psychopyVersion,frameRate,
go,sst_images/Left_Arrow.bmp,None,1,720,None,0,0,0,0,6,1,1,0.6610509859892773,go,0.05,0.72,1.72,006,Scanner,R,1,2019_Sep_08_1115,SST,3.0.7,59.57325142044596,
go,sst_images/Right_Arrow.bmp,None,2,815,None,0,1,1,1,,2,1,0.4880749060102971,go,0.05,0.815,1.815,006,Scanner,R,1,2019_Sep_08_1115,SST,3.0.7,59.57325142044596,
go,sst_images/Right_Arrow.bmp,None,2,769,None,0,2,2,2,,2,1,0.4761976399895502,go,0.05,0.769,1.7690000000000001,006,Scanner,R,1,2019_Sep_08_1115,SST,3.0.7,59.57325142044596,
go,sst_images/Left_Arrow.bmp,None,1,816,None,0,3,3,3,,1,1,0.44370143400738016,go,0.05,0.816,1.8159999999999998,006,Scanner,R,1,2019_Sep_08_1115,SST,3.0.7,59.57325142044596,
stop,sst_images/Right_Arrow.bmp,sst_images/Stop_Arrow.bmp,none,721,None,0,4,4,4,,None,1,,stop,0.1,0.721,1.721,006,Scanner,R,1,2019_Sep_08_1115,SST,3.0.7,59.57325142044596,
go,sst_images/Left_Arrow.bmp,None,1,888,None,0,5,5,5,,1,1,0.4411363800027175,go,0.1,0.888,1.888,006,Scanner,R,1,2019_Sep_08_1115,SST,3.0.7,59.57325142044596,
go,sst_images/Right_Arrow.bmp,None,2,900,None,0,6,6,6,,2,1,0.32490224999492057,go,0.1,0.9,1.9,006,Scanner,R,1,2019_Sep_08_1115,SST,3.0.7,59.57325142044596,
go,sst_images/Left_Arrow.bmp,None,1,1264,None,0,7,7,7,,1,1,0.39367796599981375,go,0.1,1.264,2.2640000000000002,006,Scanner,R,1,2019_Sep_08_1115,SST,3.0.7,59.57325142044596,
go,sst_images/Right_Arrow.bmp,None,2,744,None,0,8,8,8,,2,1,0.3438092099968344,go,0.1,0.744,1.744,006,Scanner,R,1,2019_Sep_08_1115,SST,3.0.7,59.57325142044596,
go,sst_images/Right_Arrow.bmp,None,2,794,None,0,9,9,9,,2,1,0.44310448299802374,go,0.1,0.794,1.794,006,Scanner,R,1,2019_Sep_08_1115,SST,3.0.7,59.57325142044596,
go,sst_images/Left_Arrow.bmp,None,1,901,None,0,10,10,10,,1,1,0.42685421800706536,go,0.1,0.901,1.901,006,Scanner,R,1,2019_Sep_08_1115,SST,3.0.7,59.57325142044596,
go,sst_images/Right_Arrow.bmp,None,2,882,None,0,11,11,11,,2,1,0.37699385300220456,go,0.1,0.882,1.8820000000000001,006,Scanner,R,1,2019_Sep_08_1115,SST,3.0.7,59.57325142044596,
go,sst_images/Left_Arrow.bmp,None,1,732,None,0,12,12,12,,1,1,0.37569944199640304,go,0.1,0.732,1.732,006,Scanner,R,1,2019_Sep_08_1115,SST,3.0.7,59.57325142044596,
go,sst_images/Left_Arrow.bmp,None,1,1173,None,0,13,13,13,,1,1,0.6936356920050457,go,0.1,1.173,2.173,006,Scanner,R,1,2019_Sep_08_1115,SST,3.0.7,59.57325142044596,
stop,sst_images/Left_Arrow.bmp,sst_images/Stop_Arrow.bmp,none,1189,None,0,14,14,14,,None,1,,stop,0.15000000000000002,1.189,2.189,006,Scanner,R,1,2019_Sep_08_1115,SST,3.0.7,59.57325142044596,
go,sst_images/Left_Arrow.bmp,None,1,755,None,0,15,15,15,,1,1,0.40637181099737063,go,0.15000000000000002,0.755,1.755,006,Scanner,R,1,2019_Sep_08_1115,SST,3.0.7,59.57325142044596,
go,sst_images/Right_Arrow.bmp,None,2,806,None,0,16,16,16,,2,1,0.5737129710032605,go,0.15000000000000002,0.806,1.806,006,Scanner,R,1,2019_Sep_08_1115,SST,3.0.7,59.57325142044596,
stop,sst_images/Left_Arrow.bmp,sst_images/Stop_Arrow.bmp,none,924,None,0,17,17,17,,None,1,,stop,0.2,0.924,1.9240000000000002,006,Scanner,R,1,2019_Sep_08_1115,SST,3.0.7,59.57325142044596,
go,sst_images/Left_Arrow.bmp,None,1,1139,None,0,18,18,18,,1,1,0.38610740400326904,go,0.2,1.139,2.1390000000000002,006,Scanner,R,1,2019_Sep_08_1115,SST,3.0.7,59.57325142044596,
go,sst_images/Left_Arrow.bmp,None,1,725,None,0,19,19,19,,1,1,0.3413134479924338,go,0.2,0.725,1.725,006,Scanner,R,1,2019_Sep_08_1115,SST,3.0.7,59.57325142044596,
go,sst_images/Right_Arrow.bmp,None,2,974,None,0,20,20,20,,2,1,0.5409142550051911,go,0.2,0.974,1.974,006,Scanner,R,1,2019_Sep_08_1115,SST,3.0.7,59.57325142044596,
stop,sst_images/Right_Arrow.bmp,sst_images/Stop_Arrow.bmp,none,729,None,0,21,21,21,,None,1,,stop,0.25,0.729,1.7289999999999999,006,Scanner,R,1,2019_Sep_08_1115,SST,3.0.7,59.57325142044596,
go,sst_images/Left_Arrow.bmp,None,1,744,None,0,22,22,22,,1,1,0.3740337849885691,go,0.25,0.744,1.744,006,Scanner,R,1,2019_Sep_08_1115,SST,3.0.7,59.57325142044596,
go,sst_images/Right_Arrow.bmp,None,2,1598,None,0,23,23,23,,2,1,0.45795927800645586,go,0.25,1.598,2.598,006,Scanner,R,1,2019_Sep_08_1115,SST,3.0.7,59.57325142044596,
go,sst_images/Left_Arrow.bmp,None,1,992,None,0,24,24,24,,1,1,0.45706467199488543,go,0.25,0.992,1.992,006,Scanner,R,1,2019_Sep_08_1115,SST,3.0.7,59.57325142044596,
go,sst_images/Right_Arrow.bmp,None,2,1022,None,0,25,25,25,,2,1,0.4591027429996757,go,0.25,1.022,2.0220000000000002,006,Scanner,R,1,2019_Sep_08_1115,SST,3.0.7,59.57325142044596,
stop,sst_images/Right_Arrow.bmp,sst_images/Stop_Arrow.bmp,none,929,None,0,26,26,26,,2,0,0.4928830499993637,stop,0.2,0.929,1.9861169500006364,006,Scanner,R,1,2019_Sep_08_1115,SST,3.0.7,59.57325142044596,
go,sst_images/Right_Arrow.bmp,None,2,1590,None,0,27,27,27,,2,1,0.5200192379998043,go,0.2,1.59,2.59,006,Scanner,R,1,2019_Sep_08_1115,SST,3.0.7,59.57325142044596,
go,sst_images/Left_Arrow.bmp,None,1,1317,None,0,28,28,28,,1,1,0.4347995910065947,go,0.2,1.317,2.317,006,Scanner,R,1,2019_Sep_08_1115,SST,3.0.7,59.57325142044596,
go,sst_images/Right_Arrow.bmp,None,2,832,None,0,29,29,29,,2,1,0.537453977012774,go,0.2,0.832,1.8319999999999999,006,Scanner,R,1,2019_Sep_08_1115,SST,3.0.7,59.57325142044596,
go,sst_images/Right_Arrow.bmp,None,2,956,None,0,30,30,30,,2,1,0.5882689700083574,go,0.2,0.956,1.956,006,Scanner,R,1,2019_Sep_08_1115,SST,3.0.7,59.57325142044596,
go,sst_images/Left_Arrow.bmp,None,1,761,None,0,31,31,31,,1,1,0.47094460799416993,go,0.2,0.761,1.7610000000000001,006,Scanner,R,1,2019_Sep_08_1115,SST,3.0.7,59.57325142044596,
go,sst_images/Right_Arrow.bmp,None,2,709,None,0,32,32,32,,2,1,0.534811727993656,go,0.2,0.709,1.709,006,Scanner,R,1,2019_Sep_08_1115,SST,3.0.7,59.57325142044596,
stop,sst_images/Left_Arrow.bmp,sst_images/Stop_Arrow.bmp,none,721,None,0,33,33,33,,None,1,,stop,0.25,0.721,1.7209999999999999,006,Scanner,R,1,2019_Sep_08_1115,SST,3.0.7,59.57325142044596,
go,sst_images/Left_Arrow.bmp,None,1,785,None,0,34,34,34,,1,1,0.705134627991356,go,0.25,0.785,1.7850000000000001,006,Scanner,R,1,2019_Sep_08_1115,SST,3.0.7,59.57325142044596,
go,sst_images/Left_Arrow.bmp,None,1,1022,None,0,35,35,35,,1,1,0.5576030790107325,go,0.25,1.022,2.0220000000000002,006,Scanner,R,1,2019_Sep_08_1115,SST,3.0.7,59.57325142044596,
go,sst_images/Right_Arrow.bmp,None,2,2000,None,0,36,36,36,,2,1,0.4185391569917556,go,0.25,2.0,3.0,006,Scanner,R,1,2019_Sep_08_1115,SST,3.0.7,59.57325142044596,
go,sst_images/Right_Arrow.bmp,None,2,749,None,0,37,37,37,,2,1,0.4039349939994281,go,0.25,0.749,1.749,006,Scanner,R,1,2019_Sep_08_1115,SST,3.0.7,59.57325142044596,
go,sst_images/Left_Arrow.bmp,None,1,826,None,0,38,38,38,,1,1,0.6035574940033257,go,0.25,0.826,1.826,006,Scanner,R,1,2019_Sep_08_1115,SST,3.0.7,59.57325142044596,
go,sst_images/Left_Arrow.bmp,None,1,722,None,0,39,39,39,,1,1,0.5381219890114153,go,0.25,0.722,1.722,006,Scanner,R,1,2019_Sep_08_1115,SST,3.0.7,59.57325142044596,
go,sst_images/Right_Arrow.bmp,None,2,749,None,0,40,40,40,,1,0,0.5047796429862501,go,0.25,0.749,1.749,006,Scanner,R,1,2019_Sep_08_1115,SST,3.0.7,59.57325142044596,
go,sst_images/Left_Arrow.bmp,None,1,846,None,0,41,41,41,,1,1,0.37088258400035556,go,0.25,0.846,1.846,006,Scanner,R,1,2019_Sep_08_1115,SST,3.0.7,59.57325142044596,
go,sst_images/Left_Arrow.bmp,None,1,792,None,0,42,42,42,,1,1,0.4401772959972732,go,0.25,0.792,1.792,006,Scanner,R,1,2019_Sep_08_1115,SST,3.0.7,59.57325142044596,
stop,sst_images/Right_Arrow.bmp,sst_images/Stop_Arrow.bmp,none,775,None,0,43,43,43,,2,0,0.3373255299957236,stop,0.2,0.775,1.9876744700042763,006,Scanner,R,1,2019_Sep_08_1115,SST,3.0.7,59.57325142044596,
go,sst_images/Right_Arrow.bmp,None,2,733,None,0,44,44,44,,2,1,0.4391708449984435,go,0.2,0.733,1.733,006,Scanner,R,1,2019_Sep_08_1115,SST,3.0.7,59.57325142044596,
go,sst_images/Right_Arrow.bmp,None,2,723,None,0,45,45,45,,2,1,0.4054806039930554,go,0.2,0.723,1.7229999999999999,006,Scanner,R,1,2019_Sep_08_1115,SST,3.0.7,59.57325142044596,
go,sst_images/Right_Arrow.bmp,None,2,916,None,0,46,46,46,,2,1,0.47259883300284855,go,0.2,0.916,1.916,006,Scanner,R,1,2019_Sep_08_1115,SST,3.0.7,59.57325142044596,
stop,sst_images/Right_Arrow.bmp,sst_images/Stop_Arrow.bmp,none,851,None,0,47,47,47,,2,0,0.47229742899071425,stop,0.15000000000000002,0.851,1.8787025710092857,006,Scanner,R,1,2019_Sep_08_1115,SST,3.0.7,59.57325142044596,
go,sst_images/Left_Arrow.bmp,None,1,744,None,0,48,48,48,,1,1,0.3879475019930396,go,0.15000000000000002,0.744,1.744,006,Scanner,R,1,2019_Sep_08_1115,SST,3.0.7,59.57325142044596,
go,sst_images/Left_Arrow.bmp,None,1,2000,None,0,49,49,49,,1,1,0.5889168490102747,go,0.15000000000000002,2.0,3.0,006,Scanner,R,1,2019_Sep_08_1115,SST,3.0.7,59.57325142044596,
go,sst_images/Left_Arrow.bmp,None,1,1200,None,0,50,50,50,,1,1,0.40558198899088893,go,0.15000000000000002,1.2,2.2,006,Scanner,R,1,2019_Sep_08_1115,SST,3.0.7,59.57325142044596,
go,sst_images/Right_Arrow.bmp,None,2,809,None,0,51,51,51,,2,1,0.5404019599955063,go,0.15000000000000002,0.809,1.8090000000000002,006,Scanner,R,1,2019_Sep_08_1115,SST,3.0.7,59.57325142044596,
go,sst_images/Right_Arrow.bmp,None,2,790,None,0,52,52,52,,2,1,0.4351876180007821,go,0.15000000000000002,0.79,1.79,006,Scanner,R,1,2019_Sep_08_1115,SST,3.0.7,59.57325142044596,
stop,sst_images/Left_Arrow.bmp,sst_images/Stop_Arrow.bmp,none,816,None,0,53,53,53,,None,1,,stop,0.2,0.816,1.816,006,Scanner,R,1,2019_Sep_08_1115,SST,3.0.7,59.57325142044596,
go,sst_images/Left_Arrow.bmp,None,1,816,None,0,54,54,54,,1,1,0.3383877590094926,go,0.2,0.816,1.8159999999999998,006,Scanner,R,1,2019_Sep_08_1115,SST,3.0.7,59.57325142044596,
go,sst_images/Left_Arrow.bmp,None,1,721,None,0,55,55,55,,1,1,0.5513681339944014,go,0.2,0.721,1.721,006,Scanner,R,1,2019_Sep_08_1115,SST,3.0.7,59.57325142044596,
go,sst_images/Left_Arrow.bmp,None,1,1164,None,0,56,56,56,,1,1,0.6879519820067799,go,0.2,1.164,2.1639999999999997,006,Scanner,R,1,2019_Sep_08_1115,SST,3.0.7,59.57325142044596,
go,sst_images/Right_Arrow.bmp,None,2,839,None,0,57,57,57,,2,1,0.43864550000580493,go,0.2,0.839,1.839,006,Scanner,R,1,2019_Sep_08_1115,SST,3.0.7,59.57325142044596,
go,sst_images/Left_Arrow.bmp,None,1,761,None,0,58,58,58,,1,1,0.486902550997911,go,0.2,0.761,1.7610000000000001,006,Scanner,R,1,2019_Sep_08_1115,SST,3.0.7,59.57325142044596,
stop,sst_images/Right_Arrow.bmp,sst_images/Stop_Arrow.bmp,none,886,None,0,59,59,59,,2,0,0.43777394700737204,stop,0.15000000000000002,0.886,1.948226052992628,006,Scanner,R,1,2019_Sep_08_1115,SST,3.0.7,59.57325142044596,
go,sst_images/Left_Arrow.bmp,None,1,805,None,0,60,60,60,,1,1,0.5045319519995246,go,0.15000000000000002,0.805,1.8050000000000002,006,Scanner,R,1,2019_Sep_08_1115,SST,3.0.7,59.57325142044596,
stop,sst_images/Left_Arrow.bmp,sst_images/Stop_Arrow.bmp,none,976,None,0,61,61,61,,None,1,,stop,0.2,0.976,1.9759999999999998,006,Scanner,R,1,2019_Sep_08_1115,SST,3.0.7,59.57325142044596,
go,sst_images/Right_Arrow.bmp,None,2,707,None,0,62,62,62,,2,1,0.4868817079986911,go,0.2,0.707,1.7069999999999999,006,Scanner,R,1,2019_Sep_08_1115,SST,3.0.7,59.57325142044596,
go,sst_images/Right_Arrow.bmp,None,2,927,None,0,63,63,63,,2,1,0.47097088499867823,go,0.2,0.927,1.927,006,Scanner,R,1,2019_Sep_08_1115,SST,3.0.7,59.57325142044596,
go,sst_images/Left_Arrow.bmp,None,1,908,None,0,64,64,64,,1,1,0.5529138340061763,go,0.2,0.908,1.908,006,Scanner,R,1,2019_Sep_08_1115,SST,3.0.7,59.57325142044596,
stop,sst_images/Right_Arrow.bmp,sst_images/Stop_Arrow.bmp,none,852,None,0,65,65,65,,None,1,,stop,0.25,0.852,1.8519999999999999,006,Scanner,R,1,2019_Sep_08_1115,SST,3.0.7,59.57325142044596,
go,sst_images/Right_Arrow.bmp,None,2,1233,None,0,66,66,66,,2,1,0.6025026029965375,go,0.25,1.233,2.233,006,Scanner,R,1,2019_Sep_08_1115,SST,3.0.7,59.57325142044596,
go,sst_images/Left_Arrow.bmp,None,1,1097,None,0,67,67,67,,1,1,0.6016190910013393,go,0.25,1.097,2.097,006,Scanner,R,1,2019_Sep_08_1115,SST,3.0.7,59.57325142044596,
go,sst_images/Right_Arrow.bmp,None,2,772,None,0,68,68,68,,2,1,0.4716571089957142,go,0.25,0.772,1.772,006,Scanner,R,1,2019_Sep_08_1115,SST,3.0.7,59.57325142044596,
go,sst_images/Right_Arrow.bmp,None,2,841,None,0,69,69,69,,None,0,,go,0.25,0.841,1.841,006,Scanner,R,1,2019_Sep_08_1115,SST,3.0.7,59.57325142044596,
go,sst_images/Left_Arrow.bmp,None,1,803,None,0,70,70,70,,None,0,,go,0.25,0.803,1.803,006,Scanner,R,1,2019_Sep_08_1115,SST,3.0.7,59.57325142044596,
go,sst_images/Right_Arrow.bmp,None,2,791,None,0,71,71,71,,2,1,0.6033464120118879,go,0.25,0.791,1.791,006,Scanner,R,1,2019_Sep_08_1115,SST,3.0.7,59.57325142044596,
go,sst_images/Left_Arrow.bmp,None,1,790,None,0,72,72,72,,1,1,0.7711514700058615,go,0.25,0.79,1.79,006,Scanner,R,1,2019_Sep_08_1115,SST,3.0.7,59.57325142044596,
go,sst_images/Right_Arrow.bmp,None,2,1087,None,0,73,73,73,,None,0,,go,0.25,1.087,2.0869999999999997,006,Scanner,R,1,2019_Sep_08_1115,SST,3.0.7,59.57325142044596,
go,sst_images/Left_Arrow.bmp,None,1,817,None,0,74,74,74,,1,1,0.5853995700017549,go,0.25,0.817,1.817,006,Scanner,R,1,2019_Sep_08_1115,SST,3.0.7,59.57325142044596,
stop,sst_images/Right_Arrow.bmp,sst_images/Stop_Arrow.bmp,none,747,None,0,75,75,75,,2,0,0.4861912409978686,stop,0.2,0.747,1.8108087590021313,006,Scanner,R,1,2019_Sep_08_1115,SST,3.0.7,59.57325142044596,
go,sst_images/Right_Arrow.bmp,None,2,808,None,0,76,76,76,,2,1,0.48731329099973664,go,0.2,0.808,1.808,006,Scanner,R,1,2019_Sep_08_1115,SST,3.0.7,59.57325142044596,
go,sst_images/Right_Arrow.bmp,None,2,1279,None,0,77,77,77,,2,1,0.654775574002997,go,0.2,1.279,2.279,006,Scanner,R,1,2019_Sep_08_1115,SST,3.0.7,59.57325142044596,
go,sst_images/Left_Arrow.bmp,None,1,759,None,0,78,78,78,,1,1,0.6881818789988756,go,0.2,0.759,1.759,006,Scanner,R,1,2019_Sep_08_1115,SST,3.0.7,59.57325142044596,
go,sst_images/Left_Arrow.bmp,None,1,776,None,0,79,79,79,,1,1,0.8210173370025586,go,0.2,0.776,1.776,006,Scanner,R,1,2019_Sep_08_1115,SST,3.0.7,59.57325142044596,
go,sst_images/Right_Arrow.bmp,None,2,746,None,0,80,80,80,,2,1,0.49945456099521834,go,0.2,0.746,1.746,006,Scanner,R,1,2019_Sep_08_1115,SST,3.0.7,59.57325142044596,
stop,sst_images/Left_Arrow.bmp,sst_images/Stop_Arrow.bmp,none,760,None,0,81,81,81,,1,0,0.4874535389972152,stop,0.15000000000000002,0.76,1.7725464610027848,006,Scanner,R,1,2019_Sep_08_1115,SST,3.0.7,59.57325142044596,
go,sst_images/Right_Arrow.bmp,None,2,929,None,0,82,82,82,,1,0,0.6350916110095568,go,0.15000000000000002,0.929,1.929,006,Scanner,R,1,2019_Sep_08_1115,SST,3.0.7,59.57325142044596,
go,sst_images/Right_Arrow.bmp,None,2,705,None,0,83,83,83,,2,1,0.4849426490109181,go,0.15000000000000002,0.705,1.705,006,Scanner,R,1,2019_Sep_08_1115,SST,3.0.7,59.57325142044596,
go,sst_images/Left_Arrow.bmp,None,1,1410,None,0,84,84,84,,1,1,0.6042528499965556,go,0.15000000000000002,1.41,2.41,006,Scanner,R,1,2019_Sep_08_1115,SST,3.0.7,59.57325142044596,
go,sst_images/Left_Arrow.bmp,None,1,1410,None,0,85,85,85,,1,1,0.4361538889934309,go,0.15000000000000002,1.41,2.41,006,Scanner,R,1,2019_Sep_08_1115,SST,3.0.7,59.57325142044596,
go,sst_images/Right_Arrow.bmp,None,2,766,None,0,86,86,86,,2,1,0.5672879019984975,go,0.15000000000000002,0.766,1.766,006,Scanner,R,1,2019_Sep_08_1115,SST,3.0.7,59.57325142044596,
go,sst_images/Left_Arrow.bmp,None,1,866,None,0,87,87,87,,1,1,0.7184983969927998,go,0.15000000000000002,0.866,1.866,006,Scanner,R,1,2019_Sep_08_1115,SST,3.0.7,59.57325142044596,
go,sst_images/Right_Arrow.bmp,None,2,820,None,0,88,88,88,,2,1,0.5716487140016397,go,0.15000000000000002,0.82,1.8199999999999998,006,Scanner,R,1,2019_Sep_08_1115,SST,3.0.7,59.57325142044596,
go,sst_images/Left_Arrow.bmp,None,1,894,None,0,89,89,89,,1,1,0.5545817889942555,go,0.15000000000000002,0.894,1.8940000000000001,006,Scanner,R,1,2019_Sep_08_1115,SST,3.0.7,59.57325142044596,
stop,sst_images/Right_Arrow.bmp,sst_images/Stop_Arrow.bmp,none,764,None,0,90,90,90,,None,1,,stop,0.2,0.764,1.764,006,Scanner,R,1,2019_Sep_08_1115,SST,3.0.7,59.57325142044596,
go,sst_images/Right_Arrow.bmp,None,2,1189,None,0,91,91,91,,2,1,0.9219415279949317,go,0.2,1.189,2.189,006,Scanner,R,1,2019_Sep_08_1115,SST,3.0.7,59.57325142044596,
go,sst_images/Left_Arrow.bmp,None,1,852,None,0,92,92,92,,1,1,0.7199784769909456,go,0.2,0.852,1.8519999999999999,006,Scanner,R,1,2019_Sep_08_1115,SST,3.0.7,59.57325142044596,
go,sst_images/Left_Arrow.bmp,None,1,1097,None,0,93,93,93,,1,1,0.5701983049948467,go,0.2,1.097,2.097,006,Scanner,R,1,2019_Sep_08_1115,SST,3.0.7,59.57325142044596,
stop,sst_images/Right_Arrow.bmp,sst_images/Stop_Arrow.bmp,none,710,None,0,94,94,94,,None,1,,stop,0.25,0.71,1.71,006,Scanner,R,1,2019_Sep_08_1115,SST,3.0.7,59.57325142044596,
go,sst_images/Left_Arrow.bmp,None,1,765,None,0,95,95,95,,1,1,0.7213172589981696,go,0.25,0.765,1.7650000000000001,006,Scanner,R,1,2019_Sep_08_1115,SST,3.0.7,59.57325142044596,
go,sst_images/Right_Arrow.bmp,None,2,836,None,0,96,96,96,,None,0,,go,0.25,0.836,1.8359999999999999,006,Scanner,R,1,2019_Sep_08_1115,SST,3.0.7,59.57325142044596,
go,sst_images/Left_Arrow.bmp,None,1,858,None,0,97,97,97,,1,1,0.4362584539921954,go,0.25,0.858,1.858,006,Scanner,R,1,2019_Sep_08_1115,SST,3.0.7,59.57325142044596,
go,sst_images/Right_Arrow.bmp,None,2,846,None,0,98,98,98,,2,1,0.3876979889901122,go,0.25,0.846,1.846,006,Scanner,R,1,2019_Sep_08_1115,SST,3.0.7,59.57325142044596,
go,sst_images/Right_Arrow.bmp,None,2,937,None,0,99,99,99,,2,1,0.6046202650031773,go,0.25,0.937,1.937,006,Scanner,R,1,2019_Sep_08_1115,SST,3.0.7,59.57325142044596,
stop,sst_images/Left_Arrow.bmp,sst_images/Stop_Arrow.bmp,none,761,None,0,100,100,100,,1,0,0.4869466270029079,stop,0.2,0.761,1.8240533729970922,006,Scanner,R,1,2019_Sep_08_1115,SST,3.0.7,59.57325142044596,
go,sst_images/Left_Arrow.bmp,None,1,745,None,0,101,101,101,,1,1,0.5880402869952377,go,0.2,0.745,1.745,006,Scanner,R,1,2019_Sep_08_1115,SST,3.0.7,59.57325142044596,
go,sst_images/Right_Arrow.bmp,None,2,1538,None,0,102,102,102,,2,1,0.8028833360003773,go,0.2,1.538,2.5380000000000003,006,Scanner,R,1,2019_Sep_08_1115,SST,3.0.7,59.57325142044596,
go,sst_images/Right_Arrow.bmp,None,2,716,None,0,103,103,103,,2,1,0.5888020690035773,go,0.2,0.716,1.716,006,Scanner,R,1,2019_Sep_08_1115,SST,3.0.7,59.57325142044596,
stop,sst_images/Left_Arrow.bmp,sst_images/Stop_Arrow.bmp,none,1093,None,0,104,104,104,,1,0,0.49472768801206257,stop,0.15000000000000002,1.093,2.0982723119879374,006,Scanner,R,1,2019_Sep_08_1115,SST,3.0.7,59.57325142044596,
go,sst_images/Left_Arrow.bmp,None,1,717,None,0,105,105,105,,1,1,0.3199449910025578,go,0.15000000000000002,0.717,1.717,006,Scanner,R,1,2019_Sep_08_1115,SST,3.0.7,59.57325142044596,
go,sst_images/Left_Arrow.bmp,None,1,1018,None,0,106,106,106,,1,1,0.3541615889989771,go,0.15000000000000002,1.018,2.018,006,Scanner,R,1,2019_Sep_08_1115,SST,3.0.7,59.57325142044596,
go,sst_images/Right_Arrow.bmp,None,2,768,None,0,107,107,107,,2,1,0.6187188689946197,go,0.15000000000000002,0.768,1.768,006,Scanner,R,1,2019_Sep_08_1115,SST,3.0.7,59.57325142044596,
stop,sst_images/Right_Arrow.bmp,sst_images/Stop_Arrow.bmp,none,717,None,0,108,108,108,,None,1,,stop,0.2,0.717,1.7169999999999999,006,Scanner,R,1,2019_Sep_08_1115,SST,3.0.7,59.57325142044596,
go,sst_images/Right_Arrow.bmp,None,2,1081,None,0,109,109,109,,2,1,0.5485817560111172,go,0.2,1.081,2.081,006,Scanner,R,1,2019_Sep_08_1115,SST,3.0.7,59.57325142044596,
go,sst_images/Left_Arrow.bmp,None,1,765,None,0,110,110,110,,1,1,0.37140131399792153,go,0.2,0.765,1.7650000000000001,006,Scanner,R,1,2019_Sep_08_1115,SST,3.0.7,59.57325142044596,
go,sst_images/Right_Arrow.bmp,None,2,858,None,0,111,111,111,,2,1,0.3626679430017248,go,0.2,0.858,1.858,006,Scanner,R,1,2019_Sep_08_1115,SST,3.0.7,59.57325142044596,
go,sst_images/Left_Arrow.bmp,None,1,1408,None,0,112,112,112,,1,1,0.3276262949948432,go,0.2,1.408,2.408,006,Scanner,R,1,2019_Sep_08_1115,SST,3.0.7,59.57325142044596,
go,sst_images/Right_Arrow.bmp,None,2,1262,None,0,113,113,113,,2,1,0.5857726949907374,go,0.2,1.262,2.262,006,Scanner,R,1,2019_Sep_08_1115,SST,3.0.7,59.57325142044596,
stop,sst_images/Left_Arrow.bmp,sst_images/Stop_Arrow.bmp,none,755,None,0,114,114,114,,None,1,,stop,0.25,0.755,1.755,006,Scanner,R,1,2019_Sep_08_1115,SST,3.0.7,59.57325142044596,
go,sst_images/Left_Arrow.bmp,None,1,1408,None,0,115,115,115,,1,1,0.4868918569991365,go,0.25,1.408,2.408,006,Scanner,R,1,2019_Sep_08_1115,SST,3.0.7,59.57325142044596,
go,sst_images/Right_Arrow.bmp,None,2,703,None,0,116,116,116,,2,1,0.571460533014033,go,0.25,0.703,1.7029999999999998,006,Scanner,R,1,2019_Sep_08_1115,SST,3.0.7,59.57325142044596,
go,sst_images/Left_Arrow.bmp,None,1,731,None,0,117,117,117,,1,1,0.5027272410079604,go,0.25,0.731,1.7309999999999999,006,Scanner,R,1,2019_Sep_08_1115,SST,3.0.7,59.57325142044596,
go,sst_images/Right_Arrow.bmp,None,2,2000,None,0,118,118,118,,2,1,0.3377100329962559,go,0.25,2.0,3.0,006,Scanner,R,1,2019_Sep_08_1115,SST,3.0.7,59.57325142044596,
go,sst_images/Left_Arrow.bmp,None,1,908,None,0,119,119,119,,1,1,0.4604004540015012,go,0.25,0.908,1.908,006,Scanner,R,1,2019_Sep_08_1115,SST,3.0.7,59.57325142044596,
go,sst_images/Right_Arrow.bmp,None,2,1866,None,0,120,120,120,,2,1,0.33667383500142023,go,0.25,1.866,2.866,006,Scanner,R,1,2019_Sep_08_1115,SST,3.0.7,59.57325142044596,
go,sst_images/Left_Arrow.bmp,None,1,1073,None,0,121,121,121,,1,1,0.4552096029947279,go,0.25,1.073,2.073,006,Scanner,R,1,2019_Sep_08_1115,SST,3.0.7,59.57325142044596,
go,sst_images/Right_Arrow.bmp,None,2,1290,None,0,122,122,122,,2,1,0.44418572999711614,go,0.25,1.29,2.29,006,Scanner,R,1,2019_Sep_08_1115,SST,3.0.7,59.57325142044596,
go,sst_images/Right_Arrow.bmp,None,2,708,None,0,123,123,123,,2,1,0.5919278139917878,go,0.25,0.708,1.708,006,Scanner,R,1,2019_Sep_08_1115,SST,3.0.7,59.57325142044596,
go,sst_images/Left_Arrow.bmp,None,1,1713,None,0,124,124,124,,1,1,0.5340384540031664,go,0.25,1.713,2.713,006,Scanner,R,1,2019_Sep_08_1115,SST,3.0.7,59.57325142044596,
go,sst_images/Left_Arrow.bmp,None,1,744,None,0,125,125,125,,1,1,0.4357775490061613,go,0.25,0.744,1.744,006,Scanner,R,1,2019_Sep_08_1115,SST,3.0.7,59.57325142044596,
go,sst_images/Left_Arrow.bmp,None,1,760,None,0,126,126,126,,1,1,0.8765039860008983,go,0.25,0.76,1.76,006,Scanner,R,1,2019_Sep_08_1115,SST,3.0.7,59.57325142044596,
stop,sst_images/Left_Arrow.bmp,sst_images/Stop_Arrow.bmp,none,1081,None,0,127,127,127,,1,0,0.5385033390048193,stop,0.2,1.081,2.0924966609951805,006,Scanner,R,1,2019_Sep_08_1115,SST,3.0.7,59.57325142044596,
go,sst_images/Right_Arrow.bmp,None,2,1285,None,0,128,128,128,,2,1,0.40909228900272865,go,0.2,1.285,2.285,006,Scanner,R,1,2019_Sep_08_1115,SST,3.0.7,59.57325142044596,
go,sst_images/Left_Arrow.bmp,None,1,728,None,0,129,129,129,,1,1,0.5437499840045348,go,0.2,0.728,1.728,006,Scanner,R,1,2019_Sep_08_1115,SST,3.0.7,59.57325142044596,
stop,sst_images/Right_Arrow.bmp,sst_images/Stop_Arrow.bmp,none,745,None,0,130,130,130,,1,0,0.40207579199341126,stop,0.15000000000000002,0.745,1.8429242080065888,006,Scanner,R,1,2019_Sep_08_1115,SST,3.0.7,59.57325142044596,
go,sst_images/Left_Arrow.bmp,None,1,809,None,0,131,131,131,,1,1,0.3940439639991382,go,0.15000000000000002,0.809,1.8090000000000002,006,Scanner,R,1,2019_Sep_08_1115,SST,3.0.7,59.57325142044596,
go,sst_images/Left_Arrow.bmp,None,1,1427,None,0,132,132,132,,1,1,0.34264507799525745,go,0.15000000000000002,1.427,2.427,006,Scanner,R,1,2019_Sep_08_1115,SST,3.0.7,59.57325142044596,
go,sst_images/Right_Arrow.bmp,None,2,947,None,0,133,133,133,,2,1,0.35987892000412103,go,0.15000000000000002,0.947,1.947,006,Scanner,R,1,2019_Sep_08_1115,SST,3.0.7,59.57325142044596,
go,sst_images/Left_Arrow.bmp,None,1,714,None,0,134,134,134,,1,1,0.4857875360030448,go,0.15000000000000002,0.714,1.714,006,Scanner,R,1,2019_Sep_08_1115,SST,3.0.7,59.57325142044596,
stop,sst_images/Left_Arrow.bmp,sst_images/Stop_Arrow.bmp,none,992,None,0,135,135,135,,None,1,,stop,0.2,0.992,1.9919999999999998,006,Scanner,R,1,2019_Sep_08_1115,SST,3.0.7,59.57325142044596,
go,sst_images/Left_Arrow.bmp,None,1,729,None,0,136,136,136,,1,1,0.39176940300967544,go,0.2,0.729,1.729,006,Scanner,R,1,2019_Sep_08_1115,SST,3.0.7,59.57325142044596,
go,sst_images/Right_Arrow.bmp,None,2,725,None,0,137,137,137,,None,0,,go,0.2,0.725,1.725,006,Scanner,R,1,2019_Sep_08_1115,SST,3.0.7,59.57325142044596,
go,sst_images/Right_Arrow.bmp,None,2,725,None,0,138,138,138,,2,1,0.4609900070063304,go,0.2,0.725,1.725,006,Scanner,R,1,2019_Sep_08_1115,SST,3.0.7,59.57325142044596,
stop,sst_images/Right_Arrow.bmp,sst_images/Stop_Arrow.bmp,none,790,None,0,139,139,139,,2,0,0.4256789100036258,stop,0.15000000000000002,0.79,1.8643210899963742,006,Scanner,R,1,2019_Sep_08_1115,SST,3.0.7,59.57325142044596,
go,sst_images/Left_Arrow.bmp,None,1,761,None,0,140,140,140,,None,0,,go,0.15000000000000002,0.761,1.7610000000000001,006,Scanner,R,1,2019_Sep_08_1115,SST,3.0.7,59.57325142044596,
go,sst_images/Right_Arrow.bmp,None,2,1000,None,0,141,141,141,,2,1,0.5100822460080963,go,0.15000000000000002,1.0,2.0,006,Scanner,R,1,2019_Sep_08_1115,SST,3.0.7,59.57325142044596,
go,sst_images/Left_Arrow.bmp,None,1,764,None,0,142,142,142,,1,1,0.4252799960086122,go,0.15000000000000002,0.764,1.764,006,Scanner,R,1,2019_Sep_08_1115,SST,3.0.7,59.57325142044596,
go,sst_images/Left_Arrow.bmp,None,1,976,None,0,143,143,143,,1,1,0.4916470589960227,go,0.15000000000000002,0.976,1.976,006,Scanner,R,1,2019_Sep_08_1115,SST,3.0.7,59.57325142044596,
go,sst_images/Right_Arrow.bmp,None,2,1123,None,0,144,144,144,,2,1,0.45926741701259743,go,0.15000000000000002,1.123,2.123,006,Scanner,R,1,2019_Sep_08_1115,SST,3.0.7,59.57325142044596,
go,sst_images/Left_Arrow.bmp,None,1,721,None,0,145,145,145,,1,1,0.44229870800336357,go,0.15000000000000002,0.721,1.721,006,Scanner,R,1,2019_Sep_08_1115,SST,3.0.7,59.57325142044596,
go,sst_images/Right_Arrow.bmp,None,2,807,None,0,146,146,146,,2,1,0.8913787880010204,go,0.15000000000000002,0.807,1.807,006,Scanner,R,1,2019_Sep_08_1115,SST,3.0.7,59.57325142044596,
go,sst_images/Left_Arrow.bmp,None,1,929,None,0,147,147,147,,1,1,0.38964077600394376,go,0.15000000000000002,0.929,1.929,006,Scanner,R,1,2019_Sep_08_1115,SST,3.0.7,59.57325142044596,
go,sst_images/Right_Arrow.bmp,None,2,701,None,0,148,148,148,,2,1,0.4767786040029023,go,0.15000000000000002,0.701,1.701,006,Scanner,R,1,2019_Sep_08_1115,SST,3.0.7,59.57325142044596,
stop,sst_images/Right_Arrow.bmp,sst_images/Stop_Arrow.bmp,none,929,None,0,149,149,149,,None,1,,stop,0.2,0.929,1.929,006,Scanner,R,1,2019_Sep_08_1115,SST,3.0.7,59.57325142044596,
go,sst_images/Right_Arrow.bmp,None,2,745,None,0,150,150,150,,2,1,0.573390505000134,go,0.2,0.745,1.745,006,Scanner,R,1,2019_Sep_08_1115,SST,3.0.7,59.57325142044596,
go,sst_images/Left_Arrow.bmp,None,1,984,None,0,151,151,151,,1,1,0.5260434219962917,go,0.2,0.984,1.984,006,Scanner,R,1,2019_Sep_08_1115,SST,3.0.7,59.57325142044596,
go,sst_images/Right_Arrow.bmp,None,2,729,None,0,152,152,152,,2,1,0.6258781769865891,go,0.2,0.729,1.729,006,Scanner,R,1,2019_Sep_08_1115,SST,3.0.7,59.57325142044596,
go,sst_images/Left_Arrow.bmp,None,1,831,None,0,153,153,153,,1,1,0.7129686010011937,go,0.2,0.831,1.831,006,Scanner,R,1,2019_Sep_08_1115,SST,3.0.7,59.57325142044596,
stop,sst_images/Left_Arrow.bmp,sst_images/Stop_Arrow.bmp,none,1123,None,0,154,154,154,,None,1,,stop,0.25,1.123,2.1229999999999998,006,Scanner,R,1,2019_Sep_08_1115,SST,3.0.7,59.57325142044596,
go,sst_images/Right_Arrow.bmp,None,2,710,None,0,155,155,155,,1,0,0.38934889499796554,go,0.25,0.71,1.71,006,Scanner,R,1,2019_Sep_08_1115,SST,3.0.7,59.57325142044596,
go,sst_images/Left_Arrow.bmp,None,1,716,None,0,156,156,156,,1,1,0.3900992759881774,go,0.25,0.716,1.716,006,Scanner,R,1,2019_Sep_08_1115,SST,3.0.7,59.57325142044596,
go,sst_images/Right_Arrow.bmp,None,2,928,None,0,157,157,157,,2,1,0.6533483789971797,go,0.25,0.928,1.928,006,Scanner,R,1,2019_Sep_08_1115,SST,3.0.7,59.57325142044596,
go,sst_images/Left_Arrow.bmp,None,1,740,None,0,158,158,158,,1,1,0.4541107090044534,go,0.25,0.74,1.74,006,Scanner,R,1,2019_Sep_08_1115,SST,3.0.7,59.57325142044596,
stop,sst_images/Left_Arrow.bmp,sst_images/Stop_Arrow.bmp,none,808,None,0,159,159,159,,1,0,0.520956270993338,stop,0.2,0.808,1.8370437290066621,006,Scanner,R,1,2019_Sep_08_1115,SST,3.0.7,59.57325142044596,
go,sst_images/Left_Arrow.bmp,None,1,1533,None,0,160,160,160,,1,1,0.5367089180072071,go,0.2,1.533,2.533,006,Scanner,R,1,2019_Sep_08_1115,SST,3.0.7,59.57325142044596,
go,sst_images/Right_Arrow.bmp,None,2,788,None,0,161,161,161,,2,1,0.45466158899944276,go,0.2,0.788,1.788,006,Scanner,R,1,2019_Sep_08_1115,SST,3.0.7,59.57325142044596,
go,sst_images/Left_Arrow.bmp,None,1,782,None,0,162,162,162,,1,1,0.8508295499923406,go,0.2,0.782,1.782,006,Scanner,R,1,2019_Sep_08_1115,SST,3.0.7,59.57325142044596,
go,sst_images/Right_Arrow.bmp,None,2,752,None,0,163,163,163,,2,1,0.5377788470068481,go,0.2,0.752,1.752,006,Scanner,R,1,2019_Sep_08_1115,SST,3.0.7,59.57325142044596,
go,sst_images/Right_Arrow.bmp,None,2,1093,None,0,164,164,164,,2,1,0.4195596130011836,go,0.2,1.093,2.093,006,Scanner,R,1,2019_Sep_08_1115,SST,3.0.7,59.57325142044596,
go,sst_images/Right_Arrow.bmp,None,2,774,None,0,165,165,165,,2,1,0.4025071179930819,go,0.2,0.774,1.774,006,Scanner,R,1,2019_Sep_08_1115,SST,3.0.7,59.57325142044596,
go,sst_images/Left_Arrow.bmp,None,1,765,None,0,166,166,166,,1,1,0.5045054529909976,go,0.2,0.765,1.7650000000000001,006,Scanner,R,1,2019_Sep_08_1115,SST,3.0.7,59.57325142044596,
go,sst_images/Right_Arrow.bmp,None,2,733,None,0,167,167,167,,2,1,0.6207561850023922,go,0.2,0.733,1.733,006,Scanner,R,1,2019_Sep_08_1115,SST,3.0.7,59.57325142044596,
go,sst_images/Right_Arrow.bmp,None,2,752,None,0,168,168,168,,2,1,0.5554314039909514,go,0.2,0.752,1.752,006,Scanner,R,1,2019_Sep_08_1115,SST,3.0.7,59.57325142044596,
stop,sst_images/Left_Arrow.bmp,sst_images/Stop_Arrow.bmp,none,866,None,0,169,169,169,,None,1,,stop,0.25,0.866,1.8659999999999999,006,Scanner,R,1,2019_Sep_08_1115,SST,3.0.7,59.57325142044596,
go,sst_images/Left_Arrow.bmp,None,1,886,None,0,170,170,170,,1,1,0.5400539849943016,go,0.25,0.886,1.8860000000000001,006,Scanner,R,1,2019_Sep_08_1115,SST,3.0.7,59.57325142044596,
go,sst_images/Right_Arrow.bmp,None,2,1212,None,0,171,171,171,,2,1,0.4888276900019264,go,0.25,1.212,2.2119999999999997,006,Scanner,R,1,2019_Sep_08_1115,SST,3.0.7,59.57325142044596,
go,sst_images/Right_Arrow.bmp,None,2,958,None,0,172,172,172,,2,1,0.5237781989999348,go,0.25,0.958,1.958,006,Scanner,R,1,2019_Sep_08_1115,SST,3.0.7,59.57325142044596,
go,sst_images/Right_Arrow.bmp,None,2,740,None,0,173,173,173,,2,1,0.47365878699929453,go,0.25,0.74,1.74,006,Scanner,R,1,2019_Sep_08_1115,SST,3.0.7,59.57325142044596,
stop,sst_images/Right_Arrow.bmp,sst_images/Stop_Arrow.bmp,none,752,None,0,174,174,174,,2,0,0.4230965980095789,stop,0.2,0.752,1.8789034019904212,006,Scanner,R,1,2019_Sep_08_1115,SST,3.0.7,59.57325142044596,
go,sst_images/Left_Arrow.bmp,None,1,850,None,0,175,175,175,,1,1,0.5897352220054017,go,0.2,0.85,1.85,006,Scanner,R,1,2019_Sep_08_1115,SST,3.0.7,59.57325142044596,
stop,sst_images/Left_Arrow.bmp,sst_images/Stop_Arrow.bmp,none,774,None,0,176,176,176,,None,1,,stop,0.25,0.774,1.774,006,Scanner,R,1,2019_Sep_08_1115,SST,3.0.7,59.57325142044596,
go,sst_images/Right_Arrow.bmp,None,2,779,None,0,177,177,177,,2,1,0.4221438350068638,go,0.25,0.779,1.779,006,Scanner,R,1,2019_Sep_08_1115,SST,3.0.7,59.57325142044596,
go,sst_images/Left_Arrow.bmp,None,1,918,None,0,178,178,178,,1,1,0.5037387699994724,go,0.25,0.918,1.9180000000000001,006,Scanner,R,1,2019_Sep_08_1115,SST,3.0.7,59.57325142044596,
go,sst_images/Right_Arrow.bmp,None,2,902,1062.0,0,179,179,179,,2,1,0.42080325500865,go,0.25,0.902,1.9020000000000001,006,Scanner,R,1,2019_Sep_08_1115,SST,3.0.7,59.57325142044596,
