trial_type,arrow_1,arrow_2,corrAns,jitter,run_end_fixation,trials.thisRepN,trials.thisTrialN,trials.thisN,trials.thisIndex,randomized TrialOrder,key_response.keys,key_response.corr,key_response.rt,trial_t.routineEndVal,ss_delay,iti_duration,SOA,participant,prac_or_scan,handedness,run,date,expName,psychopyVersion,frameRate,
go,sst_images/Left_Arrow.bmp,None,1,1001,None,0,0,0,0,6,1,1,0.23513194399129134,go,0.05,1.001,2.001,006,Scanner,R,2,2019_Sep_08_1122,SST,3.0.7,59.55381082036568,
stop,sst_images/Right_Arrow.bmp,sst_images/Stop_Arrow.bmp,none,729,None,0,1,1,1,,None,1,,stop,0.1,0.729,1.729,006,Scanner,R,2,2019_Sep_08_1122,SST,3.0.7,59.55381082036568,
go,sst_images/Right_Arrow.bmp,None,2,898,None,0,2,2,2,,2,1,0.5854928260087036,go,0.1,0.898,1.8980000000000001,006,Scanner,R,2,2019_Sep_08_1122,SST,3.0.7,59.55381082036568,
go,sst_images/Right_Arrow.bmp,None,2,754,None,0,3,3,3,,2,1,0.4217268420034088,go,0.1,0.754,1.754,006,Scanner,R,2,2019_Sep_08_1122,SST,3.0.7,59.55381082036568,
go,sst_images/Left_Arrow.bmp,None,1,714,None,0,4,4,4,,1,1,0.47109218199329916,go,0.1,0.714,1.714,006,Scanner,R,2,2019_Sep_08_1122,SST,3.0.7,59.55381082036568,
go,sst_images/Left_Arrow.bmp,None,1,705,None,0,5,5,5,,1,1,0.4040839219960617,go,0.1,0.705,1.705,006,Scanner,R,2,2019_Sep_08_1122,SST,3.0.7,59.55381082036568,
stop,sst_images/Left_Arrow.bmp,sst_images/Stop_Arrow.bmp,none,1027,None,0,6,6,6,,None,1,,stop,0.15000000000000002,1.027,2.0269999999999997,006,Scanner,R,2,2019_Sep_08_1122,SST,3.0.7,59.55381082036568,
go,sst_images/Right_Arrow.bmp,None,2,719,None,0,7,7,7,,2,1,0.5877787069912301,go,0.15000000000000002,0.719,1.7189999999999999,006,Scanner,R,2,2019_Sep_08_1122,SST,3.0.7,59.55381082036568,
go,sst_images/Left_Arrow.bmp,None,1,790,None,0,8,8,8,,1,1,0.5546077820035862,go,0.15000000000000002,0.79,1.79,006,Scanner,R,2,2019_Sep_08_1122,SST,3.0.7,59.55381082036568,
go,sst_images/Right_Arrow.bmp,None,2,786,None,0,9,9,9,,2,1,0.42092889099149033,go,0.15000000000000002,0.786,1.786,006,Scanner,R,2,2019_Sep_08_1122,SST,3.0.7,59.55381082036568,
go,sst_images/Right_Arrow.bmp,None,2,782,None,0,10,10,10,,2,1,0.47161022199725267,go,0.15000000000000002,0.782,1.782,006,Scanner,R,2,2019_Sep_08_1122,SST,3.0.7,59.55381082036568,
stop,sst_images/Left_Arrow.bmp,sst_images/Stop_Arrow.bmp,none,1103,None,0,11,11,11,,1,0,0.43567065299430396,stop,0.10000000000000002,1.103,2.117329347005696,006,Scanner,R,2,2019_Sep_08_1122,SST,3.0.7,59.55381082036568,
go,sst_images/Left_Arrow.bmp,None,1,1094,None,0,12,12,12,,1,1,0.4693818259984255,go,0.10000000000000002,1.094,2.0940000000000003,006,Scanner,R,2,2019_Sep_08_1122,SST,3.0.7,59.55381082036568,
go,sst_images/Right_Arrow.bmp,None,2,1410,None,0,13,13,13,,2,1,0.4049639580043731,go,0.10000000000000002,1.41,2.41,006,Scanner,R,2,2019_Sep_08_1122,SST,3.0.7,59.55381082036568,
go,sst_images/Left_Arrow.bmp,None,1,916,None,0,14,14,14,,1,1,0.5220389000023715,go,0.10000000000000002,0.916,1.916,006,Scanner,R,2,2019_Sep_08_1122,SST,3.0.7,59.55381082036568,
go,sst_images/Left_Arrow.bmp,None,1,871,None,0,15,15,15,,1,1,0.45539102199836634,go,0.10000000000000002,0.871,1.871,006,Scanner,R,2,2019_Sep_08_1122,SST,3.0.7,59.55381082036568,
go,sst_images/Left_Arrow.bmp,None,1,1238,None,0,16,16,16,,1,1,0.5701696829928551,go,0.10000000000000002,1.238,2.238,006,Scanner,R,2,2019_Sep_08_1122,SST,3.0.7,59.55381082036568,
go,sst_images/Right_Arrow.bmp,None,2,744,None,0,17,17,17,,2,1,0.5883413240080699,go,0.10000000000000002,0.744,1.744,006,Scanner,R,2,2019_Sep_08_1122,SST,3.0.7,59.55381082036568,
go,sst_images/Left_Arrow.bmp,None,1,811,None,0,18,18,18,,1,1,0.455503403005423,go,0.10000000000000002,0.811,1.811,006,Scanner,R,2,2019_Sep_08_1122,SST,3.0.7,59.55381082036568,
stop,sst_images/Right_Arrow.bmp,sst_images/Stop_Arrow.bmp,none,725,None,0,19,19,19,,2,0,0.33837209099147003,stop,0.05000000000000002,0.725,1.7866279090085302,006,Scanner,R,2,2019_Sep_08_1122,SST,3.0.7,59.55381082036568,
go,sst_images/Left_Arrow.bmp,None,1,737,None,0,20,20,20,,1,1,0.33827860199380666,go,0.05000000000000002,0.737,1.737,006,Scanner,R,2,2019_Sep_08_1122,SST,3.0.7,59.55381082036568,
go,sst_images/Right_Arrow.bmp,None,2,1242,None,0,21,21,21,,2,1,0.4214700299926335,go,0.05000000000000002,1.242,2.242,006,Scanner,R,2,2019_Sep_08_1122,SST,3.0.7,59.55381082036568,
go,sst_images/Left_Arrow.bmp,None,1,1460,None,0,22,22,22,,1,1,0.4871865919994889,go,0.05000000000000002,1.46,2.46,006,Scanner,R,2,2019_Sep_08_1122,SST,3.0.7,59.55381082036568,
go,sst_images/Right_Arrow.bmp,None,2,1043,None,0,23,23,23,,2,1,0.4043420950038126,go,0.05000000000000002,1.043,2.043,006,Scanner,R,2,2019_Sep_08_1122,SST,3.0.7,59.55381082036568,
go,sst_images/Left_Arrow.bmp,None,1,1231,None,0,24,24,24,,1,1,0.5705851749953581,go,0.05000000000000002,1.231,2.231,006,Scanner,R,2,2019_Sep_08_1122,SST,3.0.7,59.55381082036568,
go,sst_images/Right_Arrow.bmp,None,2,780,None,0,25,25,25,,2,1,0.5044768630032195,go,0.05000000000000002,0.78,1.78,006,Scanner,R,2,2019_Sep_08_1122,SST,3.0.7,59.55381082036568,
stop,sst_images/Right_Arrow.bmp,sst_images/Stop_Arrow.bmp,none,865,None,0,26,26,26,,None,1,,stop,0.10000000000000002,0.865,1.865,006,Scanner,R,2,2019_Sep_08_1122,SST,3.0.7,59.55381082036568,
go,sst_images/Right_Arrow.bmp,None,2,759,None,0,27,27,27,,2,1,0.4384743139962666,go,0.10000000000000002,0.759,1.759,006,Scanner,R,2,2019_Sep_08_1122,SST,3.0.7,59.55381082036568,
go,sst_images/Left_Arrow.bmp,None,1,760,None,0,28,28,28,,1,1,0.5544875969935674,go,0.10000000000000002,0.76,1.76,006,Scanner,R,2,2019_Sep_08_1122,SST,3.0.7,59.55381082036568,
go,sst_images/Right_Arrow.bmp,None,2,984,None,0,29,29,29,,2,1,0.7054680550063495,go,0.10000000000000002,0.984,1.984,006,Scanner,R,2,2019_Sep_08_1122,SST,3.0.7,59.55381082036568,
stop,sst_images/Left_Arrow.bmp,sst_images/Stop_Arrow.bmp,none,1242,None,0,30,30,30,,None,1,,stop,0.15000000000000002,1.242,2.242,006,Scanner,R,2,2019_Sep_08_1122,SST,3.0.7,59.55381082036568,
go,sst_images/Right_Arrow.bmp,None,2,990,None,0,31,31,31,,1,0,0.7213486709952122,go,0.15000000000000002,0.99,1.99,006,Scanner,R,2,2019_Sep_08_1122,SST,3.0.7,59.55381082036568,
go,sst_images/Left_Arrow.bmp,None,1,1097,None,0,32,32,32,,1,1,0.6033670809993055,go,0.15000000000000002,1.097,2.097,006,Scanner,R,2,2019_Sep_08_1122,SST,3.0.7,59.55381082036568,
go,sst_images/Right_Arrow.bmp,None,2,930,None,0,33,33,33,,1,0,0.635374691002653,go,0.15000000000000002,0.93,1.9300000000000002,006,Scanner,R,2,2019_Sep_08_1122,SST,3.0.7,59.55381082036568,
go,sst_images/Left_Arrow.bmp,None,1,794,None,0,34,34,34,,1,1,0.3375621159939328,go,0.15000000000000002,0.794,1.794,006,Scanner,R,2,2019_Sep_08_1122,SST,3.0.7,59.55381082036568,
stop,sst_images/Right_Arrow.bmp,sst_images/Stop_Arrow.bmp,none,1348,None,0,35,35,35,,2,0,0.42939726999611594,stop,0.10000000000000002,1.348,2.368602730003884,006,Scanner,R,2,2019_Sep_08_1122,SST,3.0.7,59.55381082036568,
go,sst_images/Left_Arrow.bmp,None,1,784,None,0,36,36,36,,1,1,0.4525464570033364,go,0.10000000000000002,0.784,1.784,006,Scanner,R,2,2019_Sep_08_1122,SST,3.0.7,59.55381082036568,
go,sst_images/Right_Arrow.bmp,None,2,864,None,0,37,37,37,,2,1,0.4522277659998508,go,0.10000000000000002,0.864,1.8639999999999999,006,Scanner,R,2,2019_Sep_08_1122,SST,3.0.7,59.55381082036568,
go,sst_images/Right_Arrow.bmp,None,2,705,None,0,38,38,38,,2,1,0.6124679920030758,go,0.10000000000000002,0.705,1.705,006,Scanner,R,2,2019_Sep_08_1122,SST,3.0.7,59.55381082036568,
stop,sst_images/Right_Arrow.bmp,sst_images/Stop_Arrow.bmp,none,831,None,0,39,39,39,,None,1,,stop,0.15000000000000002,0.831,1.8310000000000002,006,Scanner,R,2,2019_Sep_08_1122,SST,3.0.7,59.55381082036568,
go,sst_images/Left_Arrow.bmp,None,1,1023,None,0,40,40,40,,1,1,0.5137434299977031,go,0.15000000000000002,1.023,2.0229999999999997,006,Scanner,R,2,2019_Sep_08_1122,SST,3.0.7,59.55381082036568,
go,sst_images/Left_Arrow.bmp,None,1,1105,None,0,41,41,41,,1,1,0.584366499009775,go,0.15000000000000002,1.105,2.105,006,Scanner,R,2,2019_Sep_08_1122,SST,3.0.7,59.55381082036568,
go,sst_images/Right_Arrow.bmp,None,2,1385,None,0,42,42,42,,2,1,0.48589539900422096,go,0.15000000000000002,1.385,2.385,006,Scanner,R,2,2019_Sep_08_1122,SST,3.0.7,59.55381082036568,
stop,sst_images/Left_Arrow.bmp,sst_images/Stop_Arrow.bmp,none,794,None,0,43,43,43,,None,1,,stop,0.2,0.794,1.7939999999999998,006,Scanner,R,2,2019_Sep_08_1122,SST,3.0.7,59.55381082036568,
go,sst_images/Left_Arrow.bmp,None,1,1158,None,0,44,44,44,,1,1,0.5875384340033634,go,0.2,1.158,2.158,006,Scanner,R,2,2019_Sep_08_1122,SST,3.0.7,59.55381082036568,
go,sst_images/Left_Arrow.bmp,None,1,1246,None,0,45,45,45,,1,1,0.4379209430044284,go,0.2,1.246,2.246,006,Scanner,R,2,2019_Sep_08_1122,SST,3.0.7,59.55381082036568,
go,sst_images/Right_Arrow.bmp,None,2,1091,None,0,46,46,46,,2,1,0.6366205270023784,go,0.2,1.091,2.091,006,Scanner,R,2,2019_Sep_08_1122,SST,3.0.7,59.55381082036568,
stop,sst_images/Right_Arrow.bmp,sst_images/Stop_Arrow.bmp,none,707,None,0,47,47,47,,None,1,,stop,0.25,0.707,1.7069999999999999,006,Scanner,R,2,2019_Sep_08_1122,SST,3.0.7,59.55381082036568,
go,sst_images/Right_Arrow.bmp,None,2,709,None,0,48,48,48,,2,1,0.943249760006438,go,0.25,0.709,1.709,006,Scanner,R,2,2019_Sep_08_1122,SST,3.0.7,59.55381082036568,
go,sst_images/Right_Arrow.bmp,None,2,1081,None,0,49,49,49,,2,1,0.7102115039888304,go,0.25,1.081,2.081,006,Scanner,R,2,2019_Sep_08_1122,SST,3.0.7,59.55381082036568,
stop,sst_images/Left_Arrow.bmp,sst_images/Stop_Arrow.bmp,none,782,None,0,50,50,50,,None,1,,stop,0.3,0.782,1.782,006,Scanner,R,2,2019_Sep_08_1122,SST,3.0.7,59.55381082036568,
go,sst_images/Left_Arrow.bmp,None,1,769,None,0,51,51,51,,1,1,0.4044074380071834,go,0.3,0.769,1.7690000000000001,006,Scanner,R,2,2019_Sep_08_1122,SST,3.0.7,59.55381082036568,
go,sst_images/Left_Arrow.bmp,None,1,895,None,0,52,52,52,,1,1,0.39337759900081437,go,0.3,0.895,1.895,006,Scanner,R,2,2019_Sep_08_1122,SST,3.0.7,59.55381082036568,
go,sst_images/Left_Arrow.bmp,None,1,710,None,0,53,53,53,,1,1,0.3454625679878518,go,0.3,0.71,1.71,006,Scanner,R,2,2019_Sep_08_1122,SST,3.0.7,59.55381082036568,
go,sst_images/Right_Arrow.bmp,None,2,761,None,0,54,54,54,,2,1,0.6535343029972864,go,0.3,0.761,1.7610000000000001,006,Scanner,R,2,2019_Sep_08_1122,SST,3.0.7,59.55381082036568,
stop,sst_images/Right_Arrow.bmp,sst_images/Stop_Arrow.bmp,none,712,None,0,55,55,55,,2,0,0.4660212790040532,stop,0.25,0.712,1.8459787209959468,006,Scanner,R,2,2019_Sep_08_1122,SST,3.0.7,59.55381082036568,
go,sst_images/Right_Arrow.bmp,None,2,840,None,0,56,56,56,,None,0,,go,0.25,0.84,1.8399999999999999,006,Scanner,R,2,2019_Sep_08_1122,SST,3.0.7,59.55381082036568,
go,sst_images/Left_Arrow.bmp,None,1,1593,None,0,57,57,57,,1,1,0.3837113109912025,go,0.25,1.593,2.593,006,Scanner,R,2,2019_Sep_08_1122,SST,3.0.7,59.55381082036568,
go,sst_images/Left_Arrow.bmp,None,1,1244,None,0,58,58,58,,1,1,0.5199269989971071,go,0.25,1.244,2.2439999999999998,006,Scanner,R,2,2019_Sep_08_1122,SST,3.0.7,59.55381082036568,
go,sst_images/Left_Arrow.bmp,None,1,710,None,0,59,59,59,,1,1,0.4876006960112136,go,0.25,0.71,1.71,006,Scanner,R,2,2019_Sep_08_1122,SST,3.0.7,59.55381082036568,
go,sst_images/Right_Arrow.bmp,None,2,796,None,0,60,60,60,,2,1,0.5091231589904055,go,0.25,0.796,1.796,006,Scanner,R,2,2019_Sep_08_1122,SST,3.0.7,59.55381082036568,
go,sst_images/Left_Arrow.bmp,None,1,791,None,0,61,61,61,,1,1,0.7866922859975602,go,0.25,0.791,1.791,006,Scanner,R,2,2019_Sep_08_1122,SST,3.0.7,59.55381082036568,
go,sst_images/Left_Arrow.bmp,None,1,711,None,0,62,62,62,,1,1,0.4942033289989922,go,0.25,0.711,1.7109999999999999,006,Scanner,R,2,2019_Sep_08_1122,SST,3.0.7,59.55381082036568,
go,sst_images/Right_Arrow.bmp,None,2,704,None,0,63,63,63,,2,1,0.4426520429988159,go,0.25,0.704,1.704,006,Scanner,R,2,2019_Sep_08_1122,SST,3.0.7,59.55381082036568,
go,sst_images/Right_Arrow.bmp,None,2,701,None,0,64,64,64,,2,1,0.5445002880005632,go,0.25,0.701,1.701,006,Scanner,R,2,2019_Sep_08_1122,SST,3.0.7,59.55381082036568,
go,sst_images/Left_Arrow.bmp,None,1,818,None,0,65,65,65,,1,1,0.39450351501000114,go,0.25,0.818,1.818,006,Scanner,R,2,2019_Sep_08_1122,SST,3.0.7,59.55381082036568,
go,sst_images/Right_Arrow.bmp,None,2,784,None,0,66,66,66,,2,1,0.327377030000207,go,0.25,0.784,1.784,006,Scanner,R,2,2019_Sep_08_1122,SST,3.0.7,59.55381082036568,
go,sst_images/Left_Arrow.bmp,None,1,1343,None,0,67,67,67,,1,1,0.41268796600343194,go,0.25,1.343,2.343,006,Scanner,R,2,2019_Sep_08_1122,SST,3.0.7,59.55381082036568,
go,sst_images/Right_Arrow.bmp,None,2,729,None,0,68,68,68,,2,1,0.5089930089889094,go,0.25,0.729,1.729,006,Scanner,R,2,2019_Sep_08_1122,SST,3.0.7,59.55381082036568,
go,sst_images/Right_Arrow.bmp,None,2,750,None,0,69,69,69,,2,1,0.4771100359939737,go,0.25,0.75,1.75,006,Scanner,R,2,2019_Sep_08_1122,SST,3.0.7,59.55381082036568,
go,sst_images/Left_Arrow.bmp,None,1,866,None,0,70,70,70,,1,1,0.4264520909928251,go,0.25,0.866,1.866,006,Scanner,R,2,2019_Sep_08_1122,SST,3.0.7,59.55381082036568,
stop,sst_images/Right_Arrow.bmp,sst_images/Stop_Arrow.bmp,none,740,None,0,71,71,71,,2,0,0.3224006350064883,stop,0.2,0.74,1.9675993649935117,006,Scanner,R,2,2019_Sep_08_1122,SST,3.0.7,59.55381082036568,
go,sst_images/Right_Arrow.bmp,None,2,738,None,0,72,72,72,,2,1,0.4087858880084241,go,0.2,0.738,1.738,006,Scanner,R,2,2019_Sep_08_1122,SST,3.0.7,59.55381082036568,
go,sst_images/Left_Arrow.bmp,None,1,774,None,0,73,73,73,,1,1,0.4920537420111941,go,0.2,0.774,1.774,006,Scanner,R,2,2019_Sep_08_1122,SST,3.0.7,59.55381082036568,
go,sst_images/Right_Arrow.bmp,None,2,783,None,0,74,74,74,,2,1,0.6753222310071578,go,0.2,0.783,1.783,006,Scanner,R,2,2019_Sep_08_1122,SST,3.0.7,59.55381082036568,
go,sst_images/Left_Arrow.bmp,None,1,904,None,0,75,75,75,,1,1,0.4422670299973106,go,0.2,0.904,1.904,006,Scanner,R,2,2019_Sep_08_1122,SST,3.0.7,59.55381082036568,
go,sst_images/Right_Arrow.bmp,None,2,770,None,0,76,76,76,,2,1,0.2696730489988113,go,0.2,0.77,1.77,006,Scanner,R,2,2019_Sep_08_1122,SST,3.0.7,59.55381082036568,
go,sst_images/Right_Arrow.bmp,None,2,890,None,0,77,77,77,,2,1,0.6568879489932442,go,0.2,0.89,1.8900000000000001,006,Scanner,R,2,2019_Sep_08_1122,SST,3.0.7,59.55381082036568,
stop,sst_images/Left_Arrow.bmp,sst_images/Stop_Arrow.bmp,none,709,None,0,78,78,78,,None,1,,stop,0.25,0.709,1.7089999999999999,006,Scanner,R,2,2019_Sep_08_1122,SST,3.0.7,59.55381082036568,
go,sst_images/Left_Arrow.bmp,None,1,843,None,0,79,79,79,,1,1,0.4084009229991352,go,0.25,0.843,1.843,006,Scanner,R,2,2019_Sep_08_1122,SST,3.0.7,59.55381082036568,
go,sst_images/Left_Arrow.bmp,None,1,711,None,0,80,80,80,,1,1,0.8890132009983063,go,0.25,0.711,1.7109999999999999,006,Scanner,R,2,2019_Sep_08_1122,SST,3.0.7,59.55381082036568,
go,sst_images/Right_Arrow.bmp,None,2,725,None,0,81,81,81,,2,1,0.3745193719951203,go,0.25,0.725,1.725,006,Scanner,R,2,2019_Sep_08_1122,SST,3.0.7,59.55381082036568,
go,sst_images/Right_Arrow.bmp,None,2,783,None,0,82,82,82,,1,0,0.30867863800085615,go,0.25,0.783,1.783,006,Scanner,R,2,2019_Sep_08_1122,SST,3.0.7,59.55381082036568,
go,sst_images/Right_Arrow.bmp,None,2,900,None,0,83,83,83,,2,1,0.4929747209971538,go,0.25,0.9,1.9,006,Scanner,R,2,2019_Sep_08_1122,SST,3.0.7,59.55381082036568,
stop,sst_images/Right_Arrow.bmp,sst_images/Stop_Arrow.bmp,none,780,None,0,84,84,84,,2,0,0.3925756769895088,stop,0.2,0.78,1.9374243230104913,006,Scanner,R,2,2019_Sep_08_1122,SST,3.0.7,59.55381082036568,
go,sst_images/Left_Arrow.bmp,None,1,711,None,0,85,85,85,,1,1,0.538572043995373,go,0.2,0.711,1.7109999999999999,006,Scanner,R,2,2019_Sep_08_1122,SST,3.0.7,59.55381082036568,
go,sst_images/Left_Arrow.bmp,None,1,742,None,0,86,86,86,,1,1,0.4868992440024158,go,0.2,0.742,1.742,006,Scanner,R,2,2019_Sep_08_1122,SST,3.0.7,59.55381082036568,
go,sst_images/Right_Arrow.bmp,None,2,984,None,0,87,87,87,,1,0,0.2919378799997503,go,0.2,0.984,1.984,006,Scanner,R,2,2019_Sep_08_1122,SST,3.0.7,59.55381082036568,
go,sst_images/Left_Arrow.bmp,None,1,740,None,0,88,88,88,,1,1,0.36982414800149854,go,0.2,0.74,1.74,006,Scanner,R,2,2019_Sep_08_1122,SST,3.0.7,59.55381082036568,
go,sst_images/Right_Arrow.bmp,None,2,707,None,0,89,89,89,,2,1,0.46968149600434117,go,0.2,0.707,1.7069999999999999,006,Scanner,R,2,2019_Sep_08_1122,SST,3.0.7,59.55381082036568,
go,sst_images/Left_Arrow.bmp,None,1,735,None,0,90,90,90,,1,1,0.9090102380141616,go,0.2,0.735,1.7349999999999999,006,Scanner,R,2,2019_Sep_08_1122,SST,3.0.7,59.55381082036568,
go,sst_images/Right_Arrow.bmp,None,2,1200,None,0,91,91,91,,2,1,0.4703822290030075,go,0.2,1.2,2.2,006,Scanner,R,2,2019_Sep_08_1122,SST,3.0.7,59.55381082036568,
go,sst_images/Left_Arrow.bmp,None,1,817,None,0,92,92,92,,1,1,0.35138276100042276,go,0.2,0.817,1.817,006,Scanner,R,2,2019_Sep_08_1122,SST,3.0.7,59.55381082036568,
go,sst_images/Left_Arrow.bmp,None,1,1013,None,0,93,93,93,,1,1,0.35435167800460476,go,0.2,1.013,2.013,006,Scanner,R,2,2019_Sep_08_1122,SST,3.0.7,59.55381082036568,
go,sst_images/Left_Arrow.bmp,None,1,2000,None,0,94,94,94,,1,1,0.3195895609969739,go,0.2,2.0,3.0,006,Scanner,R,2,2019_Sep_08_1122,SST,3.0.7,59.55381082036568,
go,sst_images/Right_Arrow.bmp,None,2,998,None,0,95,95,95,,2,1,0.5370422050036723,go,0.2,0.998,1.998,006,Scanner,R,2,2019_Sep_08_1122,SST,3.0.7,59.55381082036568,
stop,sst_images/Right_Arrow.bmp,sst_images/Stop_Arrow.bmp,none,1013,None,0,96,96,96,,2,0,0.4071817229996668,stop,0.15000000000000002,1.013,2.105818277000333,006,Scanner,R,2,2019_Sep_08_1122,SST,3.0.7,59.55381082036568,
go,sst_images/Left_Arrow.bmp,None,1,1013,None,0,97,97,97,,1,1,0.4052825799881248,go,0.15000000000000002,1.013,2.013,006,Scanner,R,2,2019_Sep_08_1122,SST,3.0.7,59.55381082036568,
go,sst_images/Right_Arrow.bmp,None,2,810,None,0,98,98,98,,2,1,0.5074918449972756,go,0.15000000000000002,0.81,1.81,006,Scanner,R,2,2019_Sep_08_1122,SST,3.0.7,59.55381082036568,
go,sst_images/Right_Arrow.bmp,None,2,1313,None,0,99,99,99,,2,1,0.6391181950020837,go,0.15000000000000002,1.313,2.3129999999999997,006,Scanner,R,2,2019_Sep_08_1122,SST,3.0.7,59.55381082036568,
go,sst_images/Left_Arrow.bmp,None,1,973,None,0,100,100,100,,1,1,0.43965233699418604,go,0.15000000000000002,0.973,1.9729999999999999,006,Scanner,R,2,2019_Sep_08_1122,SST,3.0.7,59.55381082036568,
go,sst_images/Right_Arrow.bmp,None,2,906,None,0,101,101,101,,1,0,0.138558702004957,go,0.15000000000000002,0.906,1.9060000000000001,006,Scanner,R,2,2019_Sep_08_1122,SST,3.0.7,59.55381082036568,
go,sst_images/Right_Arrow.bmp,None,2,744,None,0,102,102,102,,2,1,0.4382625430007465,go,0.15000000000000002,0.744,1.744,006,Scanner,R,2,2019_Sep_08_1122,SST,3.0.7,59.55381082036568,
go,sst_images/Left_Arrow.bmp,None,1,968,None,0,103,103,103,,1,1,0.5397370260034222,go,0.15000000000000002,0.968,1.968,006,Scanner,R,2,2019_Sep_08_1122,SST,3.0.7,59.55381082036568,
stop,sst_images/Left_Arrow.bmp,sst_images/Stop_Arrow.bmp,none,754,None,0,104,104,104,,None,1,,stop,0.2,0.754,1.7539999999999998,006,Scanner,R,2,2019_Sep_08_1122,SST,3.0.7,59.55381082036568,
go,sst_images/Left_Arrow.bmp,None,1,979,None,0,105,105,105,,1,1,0.5728900270041777,go,0.2,0.979,1.979,006,Scanner,R,2,2019_Sep_08_1122,SST,3.0.7,59.55381082036568,
go,sst_images/Right_Arrow.bmp,None,2,1150,None,0,106,106,106,,2,1,0.6057413020025706,go,0.2,1.15,2.15,006,Scanner,R,2,2019_Sep_08_1122,SST,3.0.7,59.55381082036568,
stop,sst_images/Left_Arrow.bmp,sst_images/Stop_Arrow.bmp,none,843,None,0,107,107,107,,None,1,,stop,0.25,0.843,1.843,006,Scanner,R,2,2019_Sep_08_1122,SST,3.0.7,59.55381082036568,
go,sst_images/Right_Arrow.bmp,None,2,883,None,0,108,108,108,,2,1,0.5047020179918036,go,0.25,0.883,1.883,006,Scanner,R,2,2019_Sep_08_1122,SST,3.0.7,59.55381082036568,
go,sst_images/Left_Arrow.bmp,None,1,827,None,0,109,109,109,,1,1,0.4545800369960489,go,0.25,0.827,1.827,006,Scanner,R,2,2019_Sep_08_1122,SST,3.0.7,59.55381082036568,
go,sst_images/Right_Arrow.bmp,None,2,727,None,0,110,110,110,,2,1,0.6393059050024021,go,0.25,0.727,1.7269999999999999,006,Scanner,R,2,2019_Sep_08_1122,SST,3.0.7,59.55381082036568,
go,sst_images/Left_Arrow.bmp,None,1,933,None,0,111,111,111,,1,1,0.5386924089980312,go,0.25,0.933,1.933,006,Scanner,R,2,2019_Sep_08_1122,SST,3.0.7,59.55381082036568,
go,sst_images/Right_Arrow.bmp,None,2,709,None,0,112,112,112,,2,1,0.5047568070003763,go,0.25,0.709,1.709,006,Scanner,R,2,2019_Sep_08_1122,SST,3.0.7,59.55381082036568,
stop,sst_images/Right_Arrow.bmp,sst_images/Stop_Arrow.bmp,none,742,None,0,113,113,113,,2,0,0.5544583699957002,stop,0.2,0.742,1.7375416300042998,006,Scanner,R,2,2019_Sep_08_1122,SST,3.0.7,59.55381082036568,
go,sst_images/Left_Arrow.bmp,None,1,946,None,0,114,114,114,,1,1,0.5883803649921902,go,0.2,0.946,1.946,006,Scanner,R,2,2019_Sep_08_1122,SST,3.0.7,59.55381082036568,
go,sst_images/Right_Arrow.bmp,None,2,703,None,0,115,115,115,,2,1,0.8038917649973882,go,0.2,0.703,1.7029999999999998,006,Scanner,R,2,2019_Sep_08_1122,SST,3.0.7,59.55381082036568,
go,sst_images/Left_Arrow.bmp,None,1,790,None,0,116,116,116,,1,1,0.5577316220005741,go,0.2,0.79,1.79,006,Scanner,R,2,2019_Sep_08_1122,SST,3.0.7,59.55381082036568,
go,sst_images/Right_Arrow.bmp,None,2,771,None,0,117,117,117,,2,1,0.518675372004509,go,0.2,0.771,1.771,006,Scanner,R,2,2019_Sep_08_1122,SST,3.0.7,59.55381082036568,
go,sst_images/Left_Arrow.bmp,None,1,946,None,0,118,118,118,,1,1,0.8360971399961272,go,0.2,0.946,1.946,006,Scanner,R,2,2019_Sep_08_1122,SST,3.0.7,59.55381082036568,
stop,sst_images/Left_Arrow.bmp,sst_images/Stop_Arrow.bmp,none,1584,None,0,119,119,119,,1,0,0.4530424199911067,stop,0.15000000000000002,1.584,2.6309575800088933,006,Scanner,R,2,2019_Sep_08_1122,SST,3.0.7,59.55381082036568,
go,sst_images/Right_Arrow.bmp,None,2,803,None,0,120,120,120,,2,1,0.48733538399392273,go,0.15000000000000002,0.803,1.803,006,Scanner,R,2,2019_Sep_08_1122,SST,3.0.7,59.55381082036568,
stop,sst_images/Left_Arrow.bmp,sst_images/Stop_Arrow.bmp,none,1013,None,0,121,121,121,,1,0,0.4000071859918535,stop,0.10000000000000002,1.013,2.062992814008146,006,Scanner,R,2,2019_Sep_08_1122,SST,3.0.7,59.55381082036568,
go,sst_images/Left_Arrow.bmp,None,1,1604,None,0,122,122,122,,1,1,0.3534925019921502,go,0.10000000000000002,1.604,2.604,006,Scanner,R,2,2019_Sep_08_1122,SST,3.0.7,59.55381082036568,
go,sst_images/Right_Arrow.bmp,None,2,703,None,0,123,123,123,,2,1,0.5525904649985023,go,0.10000000000000002,0.703,1.7029999999999998,006,Scanner,R,2,2019_Sep_08_1122,SST,3.0.7,59.55381082036568,
go,sst_images/Right_Arrow.bmp,None,2,837,None,0,124,124,124,,1,0,0.6228254220040981,go,0.10000000000000002,0.837,1.837,006,Scanner,R,2,2019_Sep_08_1122,SST,3.0.7,59.55381082036568,
stop,sst_images/Right_Arrow.bmp,sst_images/Stop_Arrow.bmp,none,703,None,0,125,125,125,,None,1,,stop,0.15000000000000002,0.703,1.703,006,Scanner,R,2,2019_Sep_08_1122,SST,3.0.7,59.55381082036568,
go,sst_images/Left_Arrow.bmp,None,1,1231,None,0,126,126,126,,1,1,0.38555332300893497,go,0.15000000000000002,1.231,2.231,006,Scanner,R,2,2019_Sep_08_1122,SST,3.0.7,59.55381082036568,
go,sst_images/Left_Arrow.bmp,None,1,811,None,0,127,127,127,,1,1,0.5203319859865587,go,0.15000000000000002,0.811,1.811,006,Scanner,R,2,2019_Sep_08_1122,SST,3.0.7,59.55381082036568,
go,sst_images/Left_Arrow.bmp,None,1,1155,None,0,128,128,128,,1,1,0.41743467999913264,go,0.15000000000000002,1.155,2.1550000000000002,006,Scanner,R,2,2019_Sep_08_1122,SST,3.0.7,59.55381082036568,
stop,sst_images/Left_Arrow.bmp,sst_images/Stop_Arrow.bmp,none,761,None,0,129,129,129,,None,1,,stop,0.2,0.761,1.761,006,Scanner,R,2,2019_Sep_08_1122,SST,3.0.7,59.55381082036568,
go,sst_images/Right_Arrow.bmp,None,2,951,None,0,130,130,130,,2,1,0.4696722319931723,go,0.2,0.951,1.951,006,Scanner,R,2,2019_Sep_08_1122,SST,3.0.7,59.55381082036568,
go,sst_images/Left_Arrow.bmp,None,1,843,None,0,131,131,131,,1,1,0.3692274710047059,go,0.2,0.843,1.843,006,Scanner,R,2,2019_Sep_08_1122,SST,3.0.7,59.55381082036568,
go,sst_images/Left_Arrow.bmp,None,1,705,None,0,132,132,132,,1,1,0.621067674990627,go,0.2,0.705,1.705,006,Scanner,R,2,2019_Sep_08_1122,SST,3.0.7,59.55381082036568,
stop,sst_images/Right_Arrow.bmp,sst_images/Stop_Arrow.bmp,none,715,None,0,133,133,133,,None,1,,stop,0.25,0.715,1.7149999999999999,006,Scanner,R,2,2019_Sep_08_1122,SST,3.0.7,59.55381082036568,
go,sst_images/Left_Arrow.bmp,None,1,721,None,0,134,134,134,,1,1,0.4550882009934867,go,0.25,0.721,1.721,006,Scanner,R,2,2019_Sep_08_1122,SST,3.0.7,59.55381082036568,
go,sst_images/Right_Arrow.bmp,None,2,840,None,0,135,135,135,,2,1,0.4548849400016479,go,0.25,0.84,1.8399999999999999,006,Scanner,R,2,2019_Sep_08_1122,SST,3.0.7,59.55381082036568,
go,sst_images/Left_Arrow.bmp,None,1,828,None,0,136,136,136,,1,1,0.4210638160002418,go,0.25,0.828,1.8279999999999998,006,Scanner,R,2,2019_Sep_08_1122,SST,3.0.7,59.55381082036568,
go,sst_images/Left_Arrow.bmp,None,1,865,None,0,137,137,137,,1,1,0.5043041589960922,go,0.25,0.865,1.865,006,Scanner,R,2,2019_Sep_08_1122,SST,3.0.7,59.55381082036568,
stop,sst_images/Right_Arrow.bmp,sst_images/Stop_Arrow.bmp,none,1130,None,0,138,138,138,,None,1,,stop,0.3,1.13,2.13,006,Scanner,R,2,2019_Sep_08_1122,SST,3.0.7,59.55381082036568,
go,sst_images/Right_Arrow.bmp,None,2,701,None,0,139,139,139,,2,1,0.6874165490007726,go,0.3,0.701,1.701,006,Scanner,R,2,2019_Sep_08_1122,SST,3.0.7,59.55381082036568,
go,sst_images/Right_Arrow.bmp,None,2,746,None,0,140,140,140,,2,1,0.41995767400658224,go,0.3,0.746,1.746,006,Scanner,R,2,2019_Sep_08_1122,SST,3.0.7,59.55381082036568,
go,sst_images/Left_Arrow.bmp,None,1,749,None,0,141,141,141,,1,1,0.5011500469991006,go,0.3,0.749,1.749,006,Scanner,R,2,2019_Sep_08_1122,SST,3.0.7,59.55381082036568,
go,sst_images/Right_Arrow.bmp,None,2,783,None,0,142,142,142,,2,1,0.4537636710010702,go,0.3,0.783,1.783,006,Scanner,R,2,2019_Sep_08_1122,SST,3.0.7,59.55381082036568,
stop,sst_images/Left_Arrow.bmp,sst_images/Stop_Arrow.bmp,none,2000,None,0,143,143,143,,None,1,,stop,0.35,2.0,2.9999999999999996,006,Scanner,R,2,2019_Sep_08_1122,SST,3.0.7,59.55381082036568,
go,sst_images/Left_Arrow.bmp,None,1,788,None,0,144,144,144,,1,1,0.603640348999761,go,0.35,0.788,1.788,006,Scanner,R,2,2019_Sep_08_1122,SST,3.0.7,59.55381082036568,
go,sst_images/Left_Arrow.bmp,None,1,914,None,0,145,145,145,,1,1,0.5715399350010557,go,0.35,0.914,1.9140000000000001,006,Scanner,R,2,2019_Sep_08_1122,SST,3.0.7,59.55381082036568,
go,sst_images/Right_Arrow.bmp,None,2,757,None,0,146,146,146,,2,1,0.5513166210002964,go,0.35,0.757,1.7570000000000001,006,Scanner,R,2,2019_Sep_08_1122,SST,3.0.7,59.55381082036568,
go,sst_images/Left_Arrow.bmp,None,1,1215,None,0,147,147,147,,1,1,0.4200589550018776,go,0.35,1.215,2.215,006,Scanner,R,2,2019_Sep_08_1122,SST,3.0.7,59.55381082036568,
go,sst_images/Right_Arrow.bmp,None,2,1584,None,0,148,148,148,,2,1,0.7553773230029037,go,0.35,1.584,2.584,006,Scanner,R,2,2019_Sep_08_1122,SST,3.0.7,59.55381082036568,
go,sst_images/Left_Arrow.bmp,None,1,728,None,0,149,149,149,,1,1,0.5029430969880195,go,0.35,0.728,1.728,006,Scanner,R,2,2019_Sep_08_1122,SST,3.0.7,59.55381082036568,
go,sst_images/Right_Arrow.bmp,None,2,909,None,0,150,150,150,,2,1,0.4362543320021359,go,0.35,0.909,1.909,006,Scanner,R,2,2019_Sep_08_1122,SST,3.0.7,59.55381082036568,
go,sst_images/Right_Arrow.bmp,None,2,1130,None,0,151,151,151,,2,1,0.5050578389927978,go,0.35,1.13,2.13,006,Scanner,R,2,2019_Sep_08_1122,SST,3.0.7,59.55381082036568,
go,sst_images/Left_Arrow.bmp,None,1,822,None,0,152,152,152,,1,1,0.537811325993971,go,0.35,0.822,1.822,006,Scanner,R,2,2019_Sep_08_1122,SST,3.0.7,59.55381082036568,
stop,sst_images/Left_Arrow.bmp,sst_images/Stop_Arrow.bmp,none,968,None,0,153,153,153,,1,0,0.5029017670021858,stop,0.3,0.968,2.115098232997814,006,Scanner,R,2,2019_Sep_08_1122,SST,3.0.7,59.55381082036568,
go,sst_images/Right_Arrow.bmp,None,2,781,None,0,154,154,154,,2,1,0.6717794139985926,go,0.3,0.781,1.7810000000000001,006,Scanner,R,2,2019_Sep_08_1122,SST,3.0.7,59.55381082036568,
go,sst_images/Left_Arrow.bmp,None,1,707,None,0,155,155,155,,1,1,0.6193740390008315,go,0.3,0.707,1.7069999999999999,006,Scanner,R,2,2019_Sep_08_1122,SST,3.0.7,59.55381082036568,
go,sst_images/Right_Arrow.bmp,None,2,751,None,0,156,156,156,,2,1,0.3871354919974692,go,0.3,0.751,1.751,006,Scanner,R,2,2019_Sep_08_1122,SST,3.0.7,59.55381082036568,
stop,sst_images/Left_Arrow.bmp,sst_images/Stop_Arrow.bmp,none,783,None,0,157,157,157,,1,0,0.40331732100457884,stop,0.25,0.783,1.9796826789954212,006,Scanner,R,2,2019_Sep_08_1122,SST,3.0.7,59.55381082036568,
go,sst_images/Left_Arrow.bmp,None,1,952,None,0,158,158,158,,1,1,0.4801368350017583,go,0.25,0.952,1.952,006,Scanner,R,2,2019_Sep_08_1122,SST,3.0.7,59.55381082036568,
go,sst_images/Right_Arrow.bmp,None,2,704,None,0,159,159,159,,2,1,0.4963359999965178,go,0.25,0.704,1.704,006,Scanner,R,2,2019_Sep_08_1122,SST,3.0.7,59.55381082036568,
go,sst_images/Left_Arrow.bmp,None,1,758,None,0,160,160,160,,1,1,0.3720265629963251,go,0.25,0.758,1.758,006,Scanner,R,2,2019_Sep_08_1122,SST,3.0.7,59.55381082036568,
go,sst_images/Left_Arrow.bmp,None,1,907,None,0,161,161,161,,2,0,0.45248022400483023,go,0.25,0.907,1.907,006,Scanner,R,2,2019_Sep_08_1122,SST,3.0.7,59.55381082036568,
go,sst_images/Right_Arrow.bmp,None,2,810,None,0,162,162,162,,2,1,0.5357770670088939,go,0.25,0.81,1.81,006,Scanner,R,2,2019_Sep_08_1122,SST,3.0.7,59.55381082036568,
go,sst_images/Left_Arrow.bmp,None,1,748,None,0,163,163,163,,1,1,0.5534191639890196,go,0.25,0.748,1.748,006,Scanner,R,2,2019_Sep_08_1122,SST,3.0.7,59.55381082036568,
go,sst_images/Right_Arrow.bmp,None,2,1348,None,0,164,164,164,,2,1,0.5201831349986605,go,0.25,1.348,2.348,006,Scanner,R,2,2019_Sep_08_1122,SST,3.0.7,59.55381082036568,
go,sst_images/Right_Arrow.bmp,None,2,740,None,0,165,165,165,,1,0,0.33697640600439627,go,0.25,0.74,1.74,006,Scanner,R,2,2019_Sep_08_1122,SST,3.0.7,59.55381082036568,
go,sst_images/Right_Arrow.bmp,None,2,732,None,0,166,166,166,,2,1,0.8147909580002306,go,0.25,0.732,1.732,006,Scanner,R,2,2019_Sep_08_1122,SST,3.0.7,59.55381082036568,
go,sst_images/Left_Arrow.bmp,None,1,819,None,0,167,167,167,,None,0,,go,0.25,0.819,1.819,006,Scanner,R,2,2019_Sep_08_1122,SST,3.0.7,59.55381082036568,
go,sst_images/Right_Arrow.bmp,None,2,845,None,0,168,168,168,,2,1,0.40222350099065807,go,0.25,0.845,1.845,006,Scanner,R,2,2019_Sep_08_1122,SST,3.0.7,59.55381082036568,
stop,sst_images/Right_Arrow.bmp,sst_images/Stop_Arrow.bmp,none,723,None,0,169,169,169,,None,1,,stop,0.3,0.723,1.723,006,Scanner,R,2,2019_Sep_08_1122,SST,3.0.7,59.55381082036568,
go,sst_images/Right_Arrow.bmp,None,2,793,None,0,170,170,170,,2,1,0.4865487729985034,go,0.3,0.793,1.7930000000000001,006,Scanner,R,2,2019_Sep_08_1122,SST,3.0.7,59.55381082036568,
go,sst_images/Left_Arrow.bmp,None,1,862,None,0,171,171,171,,1,1,0.33855314599350095,go,0.3,0.862,1.862,006,Scanner,R,2,2019_Sep_08_1122,SST,3.0.7,59.55381082036568,
go,sst_images/Right_Arrow.bmp,None,2,730,None,0,172,172,172,,2,1,0.36516122400644235,go,0.3,0.73,1.73,006,Scanner,R,2,2019_Sep_08_1122,SST,3.0.7,59.55381082036568,
go,sst_images/Right_Arrow.bmp,None,2,777,None,0,173,173,173,,2,1,0.5853813389985589,go,0.3,0.777,1.7770000000000001,006,Scanner,R,2,2019_Sep_08_1122,SST,3.0.7,59.55381082036568,
stop,sst_images/Left_Arrow.bmp,sst_images/Stop_Arrow.bmp,none,770,None,0,174,174,174,,1,0,0.48645516400574706,stop,0.25,0.77,1.883544835994253,006,Scanner,R,2,2019_Sep_08_1122,SST,3.0.7,59.55381082036568,
go,sst_images/Right_Arrow.bmp,None,2,1593,None,0,175,175,175,,2,1,0.38691296499746386,go,0.25,1.593,2.593,006,Scanner,R,2,2019_Sep_08_1122,SST,3.0.7,59.55381082036568,
go,sst_images/Left_Arrow.bmp,None,1,881,None,0,176,176,176,,1,1,0.5019427539955359,go,0.25,0.881,1.881,006,Scanner,R,2,2019_Sep_08_1122,SST,3.0.7,59.55381082036568,
go,sst_images/Right_Arrow.bmp,None,2,894,None,0,177,177,177,,2,1,0.46232498199969996,go,0.25,0.894,1.8940000000000001,006,Scanner,R,2,2019_Sep_08_1122,SST,3.0.7,59.55381082036568,
go,sst_images/Left_Arrow.bmp,None,1,876,None,0,178,178,178,,1,1,0.535556175003876,go,0.25,0.876,1.876,006,Scanner,R,2,2019_Sep_08_1122,SST,3.0.7,59.55381082036568,
go,sst_images/Right_Arrow.bmp,None,2,900,3508.0,0,179,179,179,,2,1,0.37153282400686294,go,0.25,0.9,1.9,006,Scanner,R,2,2019_Sep_08_1122,SST,3.0.7,59.55381082036568,
