trial_type,arrow_1,arrow_2,corrAns,jitter,run_end_fixation,trials.thisRepN,trials.thisTrialN,trials.thisN,trials.thisIndex,randomized TrialOrder,key_response.keys,key_response.corr,trial_t.routineEndVal,ss_delay,iti_duration,SOA,key_response.rt,participant,prac_or_scan,handedness,run,date,expName,psychopyVersion,frameRate,
go,sst_images/Left_Arrow.bmp,None,1,1610,None,0,0,0,0,8,None,0,go,0.05,1.61,2.6100000000000003,,009,Scanner,L,2,2019_Sep_06_1238,SST,3.0.7,60.08272622484566,
go,sst_images/Right_Arrow.bmp,None,2,966,None,0,1,1,1,,1,0,go,0.05,0.966,1.966,0.5039599899973837,009,Scanner,L,2,2019_Sep_06_1238,SST,3.0.7,60.08272622484566,
go,sst_images/Right_Arrow.bmp,None,2,954,None,0,2,2,2,,1,0,go,0.05,0.954,1.954,0.4711853249973501,009,Scanner,L,2,2019_Sep_06_1238,SST,3.0.7,60.08272622484566,
go,sst_images/Left_Arrow.bmp,None,1,840,None,0,3,3,3,,2,0,go,0.05,0.84,1.8399999999999999,0.47313122199557256,009,Scanner,L,2,2019_Sep_06_1238,SST,3.0.7,60.08272622484566,
go,sst_images/Left_Arrow.bmp,None,1,829,None,0,4,4,4,,2,0,go,0.05,0.829,1.829,0.6553281490050722,009,Scanner,L,2,2019_Sep_06_1238,SST,3.0.7,60.08272622484566,
stop,sst_images/Right_Arrow.bmp,sst_images/Stop_Arrow.bmp,none,966,None,0,5,5,5,,None,1,stop,0.1,0.966,1.966,,009,Scanner,L,2,2019_Sep_06_1238,SST,3.0.7,60.08272622484566,
go,sst_images/Right_Arrow.bmp,None,2,785,None,0,6,6,6,,1,0,go,0.1,0.785,1.7850000000000001,0.45463884699711343,009,Scanner,L,2,2019_Sep_06_1238,SST,3.0.7,60.08272622484566,
go,sst_images/Left_Arrow.bmp,None,1,779,None,0,7,7,7,,2,0,go,0.1,0.779,1.779,0.4874434809971717,009,Scanner,L,2,2019_Sep_06_1238,SST,3.0.7,60.08272622484566,
go,sst_images/Right_Arrow.bmp,None,2,741,None,0,8,8,8,,1,0,go,0.1,0.741,1.741,0.48733965199789964,009,Scanner,L,2,2019_Sep_06_1238,SST,3.0.7,60.08272622484566,
stop,sst_images/Left_Arrow.bmp,sst_images/Stop_Arrow.bmp,none,769,None,0,9,9,9,,None,1,stop,0.15000000000000002,0.769,1.7690000000000001,,009,Scanner,L,2,2019_Sep_06_1238,SST,3.0.7,60.08272622484566,
go,sst_images/Right_Arrow.bmp,None,2,851,None,0,10,10,10,,1,0,go,0.15000000000000002,0.851,1.851,0.4536722659977386,009,Scanner,L,2,2019_Sep_06_1238,SST,3.0.7,60.08272622484566,
go,sst_images/Left_Arrow.bmp,None,1,789,None,0,11,11,11,,2,0,go,0.15000000000000002,0.789,1.7890000000000001,0.5212196409993339,009,Scanner,L,2,2019_Sep_06_1238,SST,3.0.7,60.08272622484566,
go,sst_images/Right_Arrow.bmp,None,2,729,None,0,12,12,12,,1,0,go,0.15000000000000002,0.729,1.729,0.45615093300148146,009,Scanner,L,2,2019_Sep_06_1238,SST,3.0.7,60.08272622484566,
go,sst_images/Left_Arrow.bmp,None,1,976,None,0,13,13,13,,2,0,go,0.15000000000000002,0.976,1.976,0.47165972399670864,009,Scanner,L,2,2019_Sep_06_1238,SST,3.0.7,60.08272622484566,
stop,sst_images/Left_Arrow.bmp,sst_images/Stop_Arrow.bmp,none,1252,None,0,14,14,14,,None,1,stop,0.2,1.252,2.252,,009,Scanner,L,2,2019_Sep_06_1238,SST,3.0.7,60.08272622484566,
go,sst_images/Left_Arrow.bmp,None,1,1060,None,0,15,15,15,,2,0,go,0.2,1.06,2.06,0.47105539699987276,009,Scanner,L,2,2019_Sep_06_1238,SST,3.0.7,60.08272622484566,
go,sst_images/Left_Arrow.bmp,None,1,1429,None,0,16,16,16,,2,0,go,0.2,1.429,2.4290000000000003,0.5203806049976265,009,Scanner,L,2,2019_Sep_06_1238,SST,3.0.7,60.08272622484566,
go,sst_images/Right_Arrow.bmp,None,2,747,None,0,17,17,17,,1,0,go,0.2,0.747,1.7469999999999999,0.552344796997204,009,Scanner,L,2,2019_Sep_06_1238,SST,3.0.7,60.08272622484566,
go,sst_images/Left_Arrow.bmp,None,1,864,None,0,18,18,18,,2,0,go,0.2,0.864,1.8639999999999999,0.5027174630013178,009,Scanner,L,2,2019_Sep_06_1238,SST,3.0.7,60.08272622484566,
go,sst_images/Left_Arrow.bmp,None,1,759,None,0,19,19,19,,2,0,go,0.2,0.759,1.759,0.6711056950007332,009,Scanner,L,2,2019_Sep_06_1238,SST,3.0.7,60.08272622484566,
stop,sst_images/Right_Arrow.bmp,sst_images/Stop_Arrow.bmp,none,803,None,0,20,20,20,,None,1,stop,0.25,0.803,1.803,,009,Scanner,L,2,2019_Sep_06_1238,SST,3.0.7,60.08272622484566,
go,sst_images/Right_Arrow.bmp,None,2,840,None,0,21,21,21,,1,0,go,0.25,0.84,1.8399999999999999,0.5168246789980913,009,Scanner,L,2,2019_Sep_06_1238,SST,3.0.7,60.08272622484566,
go,sst_images/Left_Arrow.bmp,None,1,822,None,0,22,22,22,,2,0,go,0.25,0.822,1.822,0.40051212700200267,009,Scanner,L,2,2019_Sep_06_1238,SST,3.0.7,60.08272622484566,
go,sst_images/Right_Arrow.bmp,None,2,1040,None,0,23,23,23,,1,0,go,0.25,1.04,2.04,0.7875175189983565,009,Scanner,L,2,2019_Sep_06_1238,SST,3.0.7,60.08272622484566,
go,sst_images/Left_Arrow.bmp,None,1,1049,None,0,24,24,24,,2,0,go,0.25,1.049,2.049,0.45354601399594685,009,Scanner,L,2,2019_Sep_06_1238,SST,3.0.7,60.08272622484566,
go,sst_images/Right_Arrow.bmp,None,2,788,None,0,25,25,25,,1,0,go,0.25,0.788,1.788,0.7877516130029107,009,Scanner,L,2,2019_Sep_06_1238,SST,3.0.7,60.08272622484566,
stop,sst_images/Right_Arrow.bmp,sst_images/Stop_Arrow.bmp,none,1152,None,0,26,26,26,,None,1,stop,0.3,1.152,2.1519999999999997,,009,Scanner,L,2,2019_Sep_06_1238,SST,3.0.7,60.08272622484566,
go,sst_images/Right_Arrow.bmp,None,2,834,None,0,27,27,27,,1,0,go,0.3,0.834,1.834,0.46995408100337954,009,Scanner,L,2,2019_Sep_06_1238,SST,3.0.7,60.08272622484566,
go,sst_images/Left_Arrow.bmp,None,1,760,None,0,28,28,28,,2,0,go,0.3,0.76,1.76,0.6498753320047399,009,Scanner,L,2,2019_Sep_06_1238,SST,3.0.7,60.08272622484566,
go,sst_images/Right_Arrow.bmp,None,2,748,None,0,29,29,29,,1,0,go,0.3,0.748,1.748,0.8543849300040165,009,Scanner,L,2,2019_Sep_06_1238,SST,3.0.7,60.08272622484566,
go,sst_images/Right_Arrow.bmp,None,2,702,None,0,30,30,30,,1,0,go,0.3,0.702,1.702,0.9531044850009494,009,Scanner,L,2,2019_Sep_06_1238,SST,3.0.7,60.08272622484566,
go,sst_images/Left_Arrow.bmp,None,1,724,None,0,31,31,31,,None,0,go,0.3,0.724,1.724,,009,Scanner,L,2,2019_Sep_06_1238,SST,3.0.7,60.08272622484566,
stop,sst_images/Left_Arrow.bmp,sst_images/Stop_Arrow.bmp,none,740,None,0,32,32,32,,None,1,stop,0.35,0.74,1.74,,009,Scanner,L,2,2019_Sep_06_1238,SST,3.0.7,60.08272622484566,
go,sst_images/Right_Arrow.bmp,None,2,815,None,0,33,33,33,,1,0,go,0.35,0.815,1.815,0.5045907280000392,009,Scanner,L,2,2019_Sep_06_1238,SST,3.0.7,60.08272622484566,
go,sst_images/Left_Arrow.bmp,None,1,864,None,0,34,34,34,,2,0,go,0.35,0.864,1.8639999999999999,0.6203009380042204,009,Scanner,L,2,2019_Sep_06_1238,SST,3.0.7,60.08272622484566,
go,sst_images/Left_Arrow.bmp,None,1,1051,None,0,35,35,35,,2,0,go,0.35,1.051,2.051,0.6207046639974578,009,Scanner,L,2,2019_Sep_06_1238,SST,3.0.7,60.08272622484566,
go,sst_images/Right_Arrow.bmp,None,2,808,None,0,36,36,36,,1,0,go,0.35,0.808,1.808,0.5879752699984238,009,Scanner,L,2,2019_Sep_06_1238,SST,3.0.7,60.08272622484566,
go,sst_images/Right_Arrow.bmp,None,2,746,None,0,37,37,37,,1,0,go,0.35,0.746,1.746,0.7044271839986322,009,Scanner,L,2,2019_Sep_06_1238,SST,3.0.7,60.08272622484566,
go,sst_images/Left_Arrow.bmp,None,1,856,None,0,38,38,38,,2,0,go,0.35,0.856,1.8559999999999999,0.7857607580008334,009,Scanner,L,2,2019_Sep_06_1238,SST,3.0.7,60.08272622484566,
stop,sst_images/Right_Arrow.bmp,sst_images/Stop_Arrow.bmp,none,973,None,0,39,39,39,,1,0,stop,0.3,0.973,2.1541008049975496,0.46889919500245014,009,Scanner,L,2,2019_Sep_06_1238,SST,3.0.7,60.08272622484566,
go,sst_images/Left_Arrow.bmp,None,1,774,None,0,40,40,40,,2,0,go,0.3,0.774,1.774,0.4876442559980205,009,Scanner,L,2,2019_Sep_06_1238,SST,3.0.7,60.08272622484566,
go,sst_images/Right_Arrow.bmp,None,2,774,None,0,41,41,41,,1,0,go,0.3,0.774,1.774,0.554432419994555,009,Scanner,L,2,2019_Sep_06_1238,SST,3.0.7,60.08272622484566,
stop,sst_images/Right_Arrow.bmp,sst_images/Stop_Arrow.bmp,none,713,None,0,42,42,42,,None,1,stop,0.35,0.713,1.713,,009,Scanner,L,2,2019_Sep_06_1238,SST,3.0.7,60.08272622484566,
go,sst_images/Left_Arrow.bmp,None,1,710,None,0,43,43,43,,2,0,go,0.35,0.71,1.71,0.41973098799644504,009,Scanner,L,2,2019_Sep_06_1238,SST,3.0.7,60.08272622484566,
go,sst_images/Left_Arrow.bmp,None,1,1123,None,0,44,44,44,,2,0,go,0.35,1.123,2.123,0.7381319289997919,009,Scanner,L,2,2019_Sep_06_1238,SST,3.0.7,60.08272622484566,
stop,sst_images/Left_Arrow.bmp,sst_images/Stop_Arrow.bmp,none,857,None,0,45,45,45,,None,1,stop,0.39999999999999997,0.857,1.857,,009,Scanner,L,2,2019_Sep_06_1238,SST,3.0.7,60.08272622484566,
go,sst_images/Right_Arrow.bmp,None,2,1169,None,0,46,46,46,,1,0,go,0.39999999999999997,1.169,2.169,0.45325503499771,009,Scanner,L,2,2019_Sep_06_1238,SST,3.0.7,60.08272622484566,
go,sst_images/Right_Arrow.bmp,None,2,1378,None,0,47,47,47,,1,0,go,0.39999999999999997,1.378,2.378,0.8033910770027433,009,Scanner,L,2,2019_Sep_06_1238,SST,3.0.7,60.08272622484566,
go,sst_images/Right_Arrow.bmp,None,2,756,None,0,48,48,48,,1,0,go,0.39999999999999997,0.756,1.756,0.5697994520014618,009,Scanner,L,2,2019_Sep_06_1238,SST,3.0.7,60.08272622484566,
go,sst_images/Left_Arrow.bmp,None,1,752,None,0,49,49,49,,2,0,go,0.39999999999999997,0.752,1.752,0.5361708190030186,009,Scanner,L,2,2019_Sep_06_1238,SST,3.0.7,60.08272622484566,
go,sst_images/Left_Arrow.bmp,None,1,748,None,0,50,50,50,,2,0,go,0.39999999999999997,0.748,1.748,0.3717194259952521,009,Scanner,L,2,2019_Sep_06_1238,SST,3.0.7,60.08272622484566,
go,sst_images/Left_Arrow.bmp,None,1,706,None,0,51,51,51,,2,0,go,0.39999999999999997,0.706,1.706,0.4882729519958957,009,Scanner,L,2,2019_Sep_06_1238,SST,3.0.7,60.08272622484566,
go,sst_images/Right_Arrow.bmp,None,2,762,None,0,52,52,52,,1,0,go,0.39999999999999997,0.762,1.762,0.5218050629991922,009,Scanner,L,2,2019_Sep_06_1238,SST,3.0.7,60.08272622484566,
go,sst_images/Right_Arrow.bmp,None,2,773,None,0,53,53,53,,1,0,go,0.39999999999999997,0.773,1.7730000000000001,0.5188340099994093,009,Scanner,L,2,2019_Sep_06_1238,SST,3.0.7,60.08272622484566,
go,sst_images/Left_Arrow.bmp,None,1,1716,None,0,54,54,54,,2,0,go,0.39999999999999997,1.716,2.716,0.4859049660008168,009,Scanner,L,2,2019_Sep_06_1238,SST,3.0.7,60.08272622484566,
go,sst_images/Left_Arrow.bmp,None,1,1099,None,0,55,55,55,,2,0,go,0.39999999999999997,1.099,2.099,0.48142022699903464,009,Scanner,L,2,2019_Sep_06_1238,SST,3.0.7,60.08272622484566,
go,sst_images/Left_Arrow.bmp,None,1,873,None,0,56,56,56,,2,0,go,0.39999999999999997,0.873,1.873,0.48745239700656384,009,Scanner,L,2,2019_Sep_06_1238,SST,3.0.7,60.08272622484566,
go,sst_images/Right_Arrow.bmp,None,2,867,None,0,57,57,57,,1,0,go,0.39999999999999997,0.867,1.867,0.48676864500157535,009,Scanner,L,2,2019_Sep_06_1238,SST,3.0.7,60.08272622484566,
go,sst_images/Left_Arrow.bmp,None,1,861,None,0,58,58,58,,2,0,go,0.39999999999999997,0.861,1.861,0.5217125240014866,009,Scanner,L,2,2019_Sep_06_1238,SST,3.0.7,60.08272622484566,
go,sst_images/Left_Arrow.bmp,None,1,1127,None,0,59,59,59,,2,0,go,0.39999999999999997,1.127,2.127,0.4677592369989725,009,Scanner,L,2,2019_Sep_06_1238,SST,3.0.7,60.08272622484566,
go,sst_images/Right_Arrow.bmp,None,2,946,None,0,60,60,60,,1,0,go,0.39999999999999997,0.946,1.946,0.48202022599434713,009,Scanner,L,2,2019_Sep_06_1238,SST,3.0.7,60.08272622484566,
stop,sst_images/Right_Arrow.bmp,sst_images/Stop_Arrow.bmp,none,939,None,0,61,61,61,,1,0,stop,0.35,0.939,2.1008512089946305,0.5381487910053693,009,Scanner,L,2,2019_Sep_06_1238,SST,3.0.7,60.08272622484566,
go,sst_images/Right_Arrow.bmp,None,2,1242,None,0,62,62,62,,1,0,go,0.35,1.242,2.242,0.6547254809993319,009,Scanner,L,2,2019_Sep_06_1238,SST,3.0.7,60.08272622484566,
go,sst_images/Left_Arrow.bmp,None,1,818,None,0,63,63,63,,2,0,go,0.35,0.818,1.818,0.46307948399771703,009,Scanner,L,2,2019_Sep_06_1238,SST,3.0.7,60.08272622484566,
go,sst_images/Right_Arrow.bmp,None,2,805,None,0,64,64,64,,1,0,go,0.35,0.805,1.8050000000000002,0.6699394109964487,009,Scanner,L,2,2019_Sep_06_1238,SST,3.0.7,60.08272622484566,
go,sst_images/Left_Arrow.bmp,None,1,836,None,0,65,65,65,,2,0,go,0.35,0.836,1.8359999999999999,0.7688245350000216,009,Scanner,L,2,2019_Sep_06_1238,SST,3.0.7,60.08272622484566,
go,sst_images/Right_Arrow.bmp,None,2,724,None,0,66,66,66,,1,0,go,0.35,0.724,1.724,0.7212968009989709,009,Scanner,L,2,2019_Sep_06_1238,SST,3.0.7,60.08272622484566,
go,sst_images/Right_Arrow.bmp,None,2,1107,None,0,67,67,67,,1,0,go,0.35,1.107,2.107,0.6531923340007779,009,Scanner,L,2,2019_Sep_06_1238,SST,3.0.7,60.08272622484566,
stop,sst_images/Left_Arrow.bmp,sst_images/Stop_Arrow.bmp,none,779,None,0,68,68,68,,None,1,stop,0.39999999999999997,0.779,1.7790000000000001,,009,Scanner,L,2,2019_Sep_06_1238,SST,3.0.7,60.08272622484566,
go,sst_images/Left_Arrow.bmp,None,1,1063,None,0,69,69,69,,2,0,go,0.39999999999999997,1.063,2.0629999999999997,0.43661253999744076,009,Scanner,L,2,2019_Sep_06_1238,SST,3.0.7,60.08272622484566,
go,sst_images/Right_Arrow.bmp,None,2,771,None,0,70,70,70,,1,0,go,0.39999999999999997,0.771,1.771,0.5709111019968987,009,Scanner,L,2,2019_Sep_06_1238,SST,3.0.7,60.08272622484566,
go,sst_images/Left_Arrow.bmp,None,1,838,None,0,71,71,71,,2,0,go,0.39999999999999997,0.838,1.838,0.4882048850049614,009,Scanner,L,2,2019_Sep_06_1238,SST,3.0.7,60.08272622484566,
go,sst_images/Right_Arrow.bmp,None,2,883,None,0,72,72,72,,1,0,go,0.39999999999999997,0.883,1.883,0.5367899609991582,009,Scanner,L,2,2019_Sep_06_1238,SST,3.0.7,60.08272622484566,
go,sst_images/Left_Arrow.bmp,None,1,872,None,0,73,73,73,,2,0,go,0.39999999999999997,0.872,1.8719999999999999,0.43606443599855993,009,Scanner,L,2,2019_Sep_06_1238,SST,3.0.7,60.08272622484566,
go,sst_images/Right_Arrow.bmp,None,2,947,None,0,74,74,74,,1,0,go,0.39999999999999997,0.947,1.947,0.41214363299513934,009,Scanner,L,2,2019_Sep_06_1238,SST,3.0.7,60.08272622484566,
stop,sst_images/Right_Arrow.bmp,sst_images/Stop_Arrow.bmp,none,864,None,0,75,75,75,,None,1,stop,0.44999999999999996,0.864,1.8639999999999999,,009,Scanner,L,2,2019_Sep_06_1238,SST,3.0.7,60.08272622484566,
go,sst_images/Right_Arrow.bmp,None,2,757,None,0,76,76,76,,1,0,go,0.44999999999999996,0.757,1.7570000000000001,0.6518154809964471,009,Scanner,L,2,2019_Sep_06_1238,SST,3.0.7,60.08272622484566,
go,sst_images/Left_Arrow.bmp,None,1,1543,None,0,77,77,77,,2,0,go,0.44999999999999996,1.543,2.543,0.454236094999942,009,Scanner,L,2,2019_Sep_06_1238,SST,3.0.7,60.08272622484566,
stop,sst_images/Right_Arrow.bmp,sst_images/Stop_Arrow.bmp,none,773,None,0,78,78,78,,1,0,stop,0.39999999999999997,0.773,2.0016123669982773,0.5213876330017229,009,Scanner,L,2,2019_Sep_06_1238,SST,3.0.7,60.08272622484566,
go,sst_images/Left_Arrow.bmp,None,1,915,None,0,79,79,79,,2,0,go,0.39999999999999997,0.915,1.915,0.7702090200036764,009,Scanner,L,2,2019_Sep_06_1238,SST,3.0.7,60.08272622484566,
go,sst_images/Right_Arrow.bmp,None,2,710,None,0,80,80,80,,1,0,go,0.39999999999999997,0.71,1.71,0.8342039729977841,009,Scanner,L,2,2019_Sep_06_1238,SST,3.0.7,60.08272622484566,
go,sst_images/Right_Arrow.bmp,None,2,769,None,0,81,81,81,,1,0,go,0.39999999999999997,0.769,1.7690000000000001,0.838516415002232,009,Scanner,L,2,2019_Sep_06_1238,SST,3.0.7,60.08272622484566,
stop,sst_images/Left_Arrow.bmp,sst_images/Stop_Arrow.bmp,none,950,None,0,82,82,82,,None,1,stop,0.44999999999999996,0.95,1.95,,009,Scanner,L,2,2019_Sep_06_1238,SST,3.0.7,60.08272622484566,
go,sst_images/Right_Arrow.bmp,None,2,1313,None,0,83,83,83,,1,0,go,0.44999999999999996,1.313,2.3129999999999997,0.5178221620008117,009,Scanner,L,2,2019_Sep_06_1238,SST,3.0.7,60.08272622484566,
go,sst_images/Left_Arrow.bmp,None,1,823,None,0,84,84,84,,2,0,go,0.44999999999999996,0.823,1.823,0.44509853999625193,009,Scanner,L,2,2019_Sep_06_1238,SST,3.0.7,60.08272622484566,
go,sst_images/Left_Arrow.bmp,None,1,1013,None,0,85,85,85,,2,0,go,0.44999999999999996,1.013,2.013,0.5519706990016857,009,Scanner,L,2,2019_Sep_06_1238,SST,3.0.7,60.08272622484566,
go,sst_images/Right_Arrow.bmp,None,2,954,None,0,86,86,86,,1,0,go,0.44999999999999996,0.954,1.954,0.7444984969988582,009,Scanner,L,2,2019_Sep_06_1238,SST,3.0.7,60.08272622484566,
go,sst_images/Left_Arrow.bmp,None,1,800,None,0,87,87,87,,2,0,go,0.44999999999999996,0.8,1.8,0.8878874720030581,009,Scanner,L,2,2019_Sep_06_1238,SST,3.0.7,60.08272622484566,
go,sst_images/Right_Arrow.bmp,None,2,953,None,0,88,88,88,,1,0,go,0.44999999999999996,0.953,1.9529999999999998,0.8377718519986956,009,Scanner,L,2,2019_Sep_06_1238,SST,3.0.7,60.08272622484566,
go,sst_images/Left_Arrow.bmp,None,1,746,None,0,89,89,89,,2,0,go,0.44999999999999996,0.746,1.746,0.8459681130043464,009,Scanner,L,2,2019_Sep_06_1238,SST,3.0.7,60.08272622484566,
stop,sst_images/Right_Arrow.bmp,sst_images/Stop_Arrow.bmp,none,973,None,0,90,90,90,,None,1,stop,0.49999999999999994,0.973,1.9729999999999999,,009,Scanner,L,2,2019_Sep_06_1238,SST,3.0.7,60.08272622484566,
go,sst_images/Right_Arrow.bmp,None,2,788,None,0,91,91,91,,1,0,go,0.49999999999999994,0.788,1.788,0.5178814370010514,009,Scanner,L,2,2019_Sep_06_1238,SST,3.0.7,60.08272622484566,
go,sst_images/Left_Arrow.bmp,None,1,881,None,0,92,92,92,,2,0,go,0.49999999999999994,0.881,1.881,0.704295538002043,009,Scanner,L,2,2019_Sep_06_1238,SST,3.0.7,60.08272622484566,
go,sst_images/Left_Arrow.bmp,None,1,717,None,0,93,93,93,,2,0,go,0.49999999999999994,0.717,1.717,0.7364073580029071,009,Scanner,L,2,2019_Sep_06_1238,SST,3.0.7,60.08272622484566,
go,sst_images/Left_Arrow.bmp,None,1,876,None,0,94,94,94,,None,0,go,0.49999999999999994,0.876,1.876,,009,Scanner,L,2,2019_Sep_06_1238,SST,3.0.7,60.08272622484566,
stop,sst_images/Right_Arrow.bmp,sst_images/Stop_Arrow.bmp,none,1124,None,0,95,95,95,,None,1,stop,0.5499999999999999,1.124,2.124,,009,Scanner,L,2,2019_Sep_06_1238,SST,3.0.7,60.08272622484566,
go,sst_images/Right_Arrow.bmp,None,2,720,None,0,96,96,96,,1,0,go,0.5499999999999999,0.72,1.72,0.5348279329991783,009,Scanner,L,2,2019_Sep_06_1238,SST,3.0.7,60.08272622484566,
go,sst_images/Left_Arrow.bmp,None,1,801,None,0,97,97,97,,2,0,go,0.5499999999999999,0.801,1.8010000000000002,0.4939473379999981,009,Scanner,L,2,2019_Sep_06_1238,SST,3.0.7,60.08272622484566,
stop,sst_images/Left_Arrow.bmp,sst_images/Stop_Arrow.bmp,none,736,None,0,98,98,98,,None,1,stop,0.6,0.736,1.736,,009,Scanner,L,2,2019_Sep_06_1238,SST,3.0.7,60.08272622484566,
go,sst_images/Right_Arrow.bmp,None,2,738,None,0,99,99,99,,1,0,go,0.6,0.738,1.738,0.6543135230022017,009,Scanner,L,2,2019_Sep_06_1238,SST,3.0.7,60.08272622484566,
go,sst_images/Right_Arrow.bmp,None,2,871,None,0,100,100,100,,1,0,go,0.6,0.871,1.871,0.6361975399995572,009,Scanner,L,2,2019_Sep_06_1238,SST,3.0.7,60.08272622484566,
go,sst_images/Left_Arrow.bmp,None,1,709,None,0,101,101,101,,2,0,go,0.6,0.709,1.709,0.5358851440032595,009,Scanner,L,2,2019_Sep_06_1238,SST,3.0.7,60.08272622484566,
go,sst_images/Right_Arrow.bmp,None,2,728,None,0,102,102,102,,1,0,go,0.6,0.728,1.728,0.7412773870019009,009,Scanner,L,2,2019_Sep_06_1238,SST,3.0.7,60.08272622484566,
go,sst_images/Right_Arrow.bmp,None,2,1087,None,0,103,103,103,,1,0,go,0.6,1.087,2.0869999999999997,0.8925370580036542,009,Scanner,L,2,2019_Sep_06_1238,SST,3.0.7,60.08272622484566,
stop,sst_images/Left_Arrow.bmp,sst_images/Stop_Arrow.bmp,none,748,None,0,104,104,104,,2,0,stop,0.5499999999999999,0.748,1.8879921710020862,0.7600078289979137,009,Scanner,L,2,2019_Sep_06_1238,SST,3.0.7,60.08272622484566,
go,sst_images/Left_Arrow.bmp,None,1,777,None,0,105,105,105,,2,0,go,0.5499999999999999,0.777,1.7770000000000001,0.6595235240019974,009,Scanner,L,2,2019_Sep_06_1238,SST,3.0.7,60.08272622484566,
go,sst_images/Left_Arrow.bmp,None,1,903,None,0,106,106,106,,2,0,go,0.5499999999999999,0.903,1.903,0.8929437359984149,009,Scanner,L,2,2019_Sep_06_1238,SST,3.0.7,60.08272622484566,
go,sst_images/Right_Arrow.bmp,None,2,714,None,0,107,107,107,,1,0,go,0.5499999999999999,0.714,1.714,0.7935219089995371,009,Scanner,L,2,2019_Sep_06_1238,SST,3.0.7,60.08272622484566,
go,sst_images/Right_Arrow.bmp,None,2,727,None,0,108,108,108,,1,0,go,0.5499999999999999,0.727,1.7269999999999999,0.8747817139956169,009,Scanner,L,2,2019_Sep_06_1238,SST,3.0.7,60.08272622484566,
go,sst_images/Left_Arrow.bmp,None,1,840,None,0,109,109,109,,2,0,go,0.5499999999999999,0.84,1.8399999999999999,0.926598472004116,009,Scanner,L,2,2019_Sep_06_1238,SST,3.0.7,60.08272622484566,
stop,sst_images/Right_Arrow.bmp,sst_images/Stop_Arrow.bmp,none,876,None,0,110,110,110,,None,1,stop,0.6,0.876,1.8760000000000001,,009,Scanner,L,2,2019_Sep_06_1238,SST,3.0.7,60.08272622484566,
go,sst_images/Right_Arrow.bmp,None,2,1152,None,0,111,111,111,,1,0,go,0.6,1.152,2.152,0.5238953480002237,009,Scanner,L,2,2019_Sep_06_1238,SST,3.0.7,60.08272622484566,
go,sst_images/Left_Arrow.bmp,None,1,874,None,0,112,112,112,,2,0,go,0.6,0.874,1.874,0.42515682500379626,009,Scanner,L,2,2019_Sep_06_1238,SST,3.0.7,60.08272622484566,
go,sst_images/Right_Arrow.bmp,None,2,1413,None,0,113,113,113,,1,0,go,0.6,1.413,2.4130000000000003,0.5057011219978449,009,Scanner,L,2,2019_Sep_06_1238,SST,3.0.7,60.08272622484566,
go,sst_images/Left_Arrow.bmp,None,1,755,None,0,114,114,114,,2,0,go,0.6,0.755,1.755,0.6919515510016936,009,Scanner,L,2,2019_Sep_06_1238,SST,3.0.7,60.08272622484566,
go,sst_images/Right_Arrow.bmp,None,2,787,None,0,115,115,115,,1,0,go,0.6,0.787,1.787,0.7588531809960841,009,Scanner,L,2,2019_Sep_06_1238,SST,3.0.7,60.08272622484566,
stop,sst_images/Left_Arrow.bmp,sst_images/Stop_Arrow.bmp,none,805,None,0,116,116,116,,2,0,stop,0.5499999999999999,0.805,1.9957704769968407,0.7092295230031596,009,Scanner,L,2,2019_Sep_06_1238,SST,3.0.7,60.08272622484566,
go,sst_images/Left_Arrow.bmp,None,1,719,None,0,117,117,117,,2,0,go,0.5499999999999999,0.719,1.7189999999999999,0.8040923029984697,009,Scanner,L,2,2019_Sep_06_1238,SST,3.0.7,60.08272622484566,
go,sst_images/Right_Arrow.bmp,None,2,764,None,0,118,118,118,,1,0,go,0.5499999999999999,0.764,1.764,0.7902908840042073,009,Scanner,L,2,2019_Sep_06_1238,SST,3.0.7,60.08272622484566,
stop,sst_images/Left_Arrow.bmp,sst_images/Stop_Arrow.bmp,none,1128,None,0,119,119,119,,2,0,stop,0.49999999999999994,1.128,2.2883901499998753,0.6896098500001244,009,Scanner,L,2,2019_Sep_06_1238,SST,3.0.7,60.08272622484566,
go,sst_images/Left_Arrow.bmp,None,1,1050,None,0,120,120,120,,2,0,go,0.49999999999999994,1.05,2.05,0.674765126001148,009,Scanner,L,2,2019_Sep_06_1238,SST,3.0.7,60.08272622484566,
go,sst_images/Right_Arrow.bmp,None,2,833,None,0,121,121,121,,1,0,go,0.49999999999999994,0.833,1.833,0.5529005100033828,009,Scanner,L,2,2019_Sep_06_1238,SST,3.0.7,60.08272622484566,
go,sst_images/Left_Arrow.bmp,None,1,879,None,0,122,122,122,,2,0,go,0.49999999999999994,0.879,1.879,0.520287842999096,009,Scanner,L,2,2019_Sep_06_1238,SST,3.0.7,60.08272622484566,
stop,sst_images/Right_Arrow.bmp,sst_images/Stop_Arrow.bmp,none,885,None,0,123,123,123,,1,0,stop,0.44999999999999996,0.885,2.1652626199962106,0.5197373800037894,009,Scanner,L,2,2019_Sep_06_1238,SST,3.0.7,60.08272622484566,
go,sst_images/Right_Arrow.bmp,None,2,739,None,0,124,124,124,,1,0,go,0.44999999999999996,0.739,1.7389999999999999,0.5511461610003607,009,Scanner,L,2,2019_Sep_06_1238,SST,3.0.7,60.08272622484566,
go,sst_images/Right_Arrow.bmp,None,2,1033,None,0,125,125,125,,1,0,go,0.44999999999999996,1.033,2.033,0.771851452998817,009,Scanner,L,2,2019_Sep_06_1238,SST,3.0.7,60.08272622484566,
go,sst_images/Left_Arrow.bmp,None,1,1252,None,0,126,126,126,,2,0,go,0.44999999999999996,1.252,2.252,0.48659025800589006,009,Scanner,L,2,2019_Sep_06_1238,SST,3.0.7,60.08272622484566,
go,sst_images/Left_Arrow.bmp,None,1,1294,None,0,127,127,127,,2,0,go,0.44999999999999996,1.294,2.294,0.5537072799997986,009,Scanner,L,2,2019_Sep_06_1238,SST,3.0.7,60.08272622484566,
go,sst_images/Left_Arrow.bmp,None,1,988,None,0,128,128,128,,2,0,go,0.44999999999999996,0.988,1.988,0.5358782330004033,009,Scanner,L,2,2019_Sep_06_1238,SST,3.0.7,60.08272622484566,
go,sst_images/Right_Arrow.bmp,None,2,768,None,0,129,129,129,,1,0,go,0.44999999999999996,0.768,1.768,0.5372676859988132,009,Scanner,L,2,2019_Sep_06_1238,SST,3.0.7,60.08272622484566,
stop,sst_images/Left_Arrow.bmp,sst_images/Stop_Arrow.bmp,none,757,None,0,130,130,130,,2,0,stop,0.39999999999999997,0.757,1.9225118869966829,0.5844881130033173,009,Scanner,L,2,2019_Sep_06_1238,SST,3.0.7,60.08272622484566,
go,sst_images/Left_Arrow.bmp,None,1,1128,None,0,131,131,131,,2,0,go,0.39999999999999997,1.128,2.128,0.7705293620019802,009,Scanner,L,2,2019_Sep_06_1238,SST,3.0.7,60.08272622484566,
go,sst_images/Left_Arrow.bmp,None,1,829,None,0,132,132,132,,2,0,go,0.39999999999999997,0.829,1.829,0.8398451989996829,009,Scanner,L,2,2019_Sep_06_1238,SST,3.0.7,60.08272622484566,
go,sst_images/Left_Arrow.bmp,None,1,802,None,0,133,133,133,,None,0,go,0.39999999999999997,0.802,1.802,,009,Scanner,L,2,2019_Sep_06_1238,SST,3.0.7,60.08272622484566,
go,sst_images/Right_Arrow.bmp,None,2,744,None,0,134,134,134,,1,0,go,0.39999999999999997,0.744,1.744,0.5525936929989257,009,Scanner,L,2,2019_Sep_06_1238,SST,3.0.7,60.08272622484566,
stop,sst_images/Right_Arrow.bmp,sst_images/Stop_Arrow.bmp,none,822,None,0,135,135,135,,1,0,stop,0.35,0.822,1.9495879559936584,0.5724120440063416,009,Scanner,L,2,2019_Sep_06_1238,SST,3.0.7,60.08272622484566,
go,sst_images/Left_Arrow.bmp,None,1,728,None,0,136,136,136,,2,0,go,0.35,0.728,1.728,0.38942009300080827,009,Scanner,L,2,2019_Sep_06_1238,SST,3.0.7,60.08272622484566,
go,sst_images/Left_Arrow.bmp,None,1,772,None,0,137,137,137,,2,0,go,0.35,0.772,1.772,0.5555108970002038,009,Scanner,L,2,2019_Sep_06_1238,SST,3.0.7,60.08272622484566,
go,sst_images/Right_Arrow.bmp,None,2,787,None,0,138,138,138,,1,0,go,0.35,0.787,1.787,0.635403045998828,009,Scanner,L,2,2019_Sep_06_1238,SST,3.0.7,60.08272622484566,
go,sst_images/Right_Arrow.bmp,None,2,788,None,0,139,139,139,,1,0,go,0.35,0.788,1.788,0.4874445990062668,009,Scanner,L,2,2019_Sep_06_1238,SST,3.0.7,60.08272622484566,
go,sst_images/Left_Arrow.bmp,None,1,818,None,0,140,140,140,,2,0,go,0.35,0.818,1.818,0.7063641529966844,009,Scanner,L,2,2019_Sep_06_1238,SST,3.0.7,60.08272622484566,
go,sst_images/Right_Arrow.bmp,None,2,1097,None,0,141,141,141,,1,0,go,0.35,1.097,2.097,0.9542155849994742,009,Scanner,L,2,2019_Sep_06_1238,SST,3.0.7,60.08272622484566,
go,sst_images/Left_Arrow.bmp,None,1,797,None,0,142,142,142,,2,0,go,0.35,0.797,1.7970000000000002,0.7888730120030232,009,Scanner,L,2,2019_Sep_06_1238,SST,3.0.7,60.08272622484566,
go,sst_images/Left_Arrow.bmp,None,1,950,None,0,143,143,143,,2,0,go,0.35,0.95,1.95,0.4860974309995072,009,Scanner,L,2,2019_Sep_06_1238,SST,3.0.7,60.08272622484566,
go,sst_images/Right_Arrow.bmp,None,2,857,None,0,144,144,144,,1,0,go,0.35,0.857,1.857,0.5376267269966775,009,Scanner,L,2,2019_Sep_06_1238,SST,3.0.7,60.08272622484566,
go,sst_images/Left_Arrow.bmp,None,1,777,None,0,145,145,145,,2,0,go,0.35,0.777,1.7770000000000001,0.537198060999799,009,Scanner,L,2,2019_Sep_06_1238,SST,3.0.7,60.08272622484566,
stop,sst_images/Right_Arrow.bmp,sst_images/Stop_Arrow.bmp,none,1051,None,0,146,146,146,,1,0,stop,0.3,1.051,2.197650125001906,0.5033498749980936,009,Scanner,L,2,2019_Sep_06_1238,SST,3.0.7,60.08272622484566,
go,sst_images/Right_Arrow.bmp,None,2,801,None,0,147,147,147,,1,0,go,0.3,0.801,1.8010000000000002,0.6220601610039012,009,Scanner,L,2,2019_Sep_06_1238,SST,3.0.7,60.08272622484566,
go,sst_images/Left_Arrow.bmp,None,1,803,None,0,148,148,148,,2,0,go,0.3,0.803,1.803,0.7056564599988633,009,Scanner,L,2,2019_Sep_06_1238,SST,3.0.7,60.08272622484566,
go,sst_images/Right_Arrow.bmp,None,2,741,None,0,149,149,149,,1,0,go,0.3,0.741,1.741,0.6362270760000683,009,Scanner,L,2,2019_Sep_06_1238,SST,3.0.7,60.08272622484566,
go,sst_images/Right_Arrow.bmp,None,2,865,None,0,150,150,150,,1,0,go,0.3,0.865,1.865,0.8365240200000699,009,Scanner,L,2,2019_Sep_06_1238,SST,3.0.7,60.08272622484566,
stop,sst_images/Left_Arrow.bmp,sst_images/Stop_Arrow.bmp,none,1040,None,0,151,151,151,,None,1,stop,0.35,1.04,2.04,,009,Scanner,L,2,2019_Sep_06_1238,SST,3.0.7,60.08272622484566,
go,sst_images/Left_Arrow.bmp,None,1,869,None,0,152,152,152,,2,0,go,0.35,0.869,1.869,0.4878788159985561,009,Scanner,L,2,2019_Sep_06_1238,SST,3.0.7,60.08272622484566,
go,sst_images/Right_Arrow.bmp,None,2,818,None,0,153,153,153,,1,0,go,0.35,0.818,1.818,0.4878495919983834,009,Scanner,L,2,2019_Sep_06_1238,SST,3.0.7,60.08272622484566,
go,sst_images/Left_Arrow.bmp,None,1,1189,None,0,154,154,154,,2,0,go,0.35,1.189,2.189,0.47118020999914734,009,Scanner,L,2,2019_Sep_06_1238,SST,3.0.7,60.08272622484566,
go,sst_images/Right_Arrow.bmp,None,2,1204,None,0,155,155,155,,1,0,go,0.35,1.204,2.2039999999999997,0.6196117430008599,009,Scanner,L,2,2019_Sep_06_1238,SST,3.0.7,60.08272622484566,
stop,sst_images/Left_Arrow.bmp,sst_images/Stop_Arrow.bmp,none,1100,None,0,156,156,156,,2,0,stop,0.3,1.1,2.2470745090031414,0.5029254909968586,009,Scanner,L,2,2019_Sep_06_1238,SST,3.0.7,60.08272622484566,
go,sst_images/Left_Arrow.bmp,None,1,713,None,0,157,157,157,,2,0,go,0.3,0.713,1.713,0.7046492490044329,009,Scanner,L,2,2019_Sep_06_1238,SST,3.0.7,60.08272622484566,
go,sst_images/Right_Arrow.bmp,None,2,843,None,0,158,158,158,,1,0,go,0.3,0.843,1.843,0.5177735979959834,009,Scanner,L,2,2019_Sep_06_1238,SST,3.0.7,60.08272622484566,
go,sst_images/Left_Arrow.bmp,None,1,742,None,0,159,159,159,,2,0,go,0.3,0.742,1.742,0.6371694749977905,009,Scanner,L,2,2019_Sep_06_1238,SST,3.0.7,60.08272622484566,
go,sst_images/Left_Arrow.bmp,None,1,1059,None,0,160,160,160,,2,0,go,0.3,1.059,2.059,0.6545568479996291,009,Scanner,L,2,2019_Sep_06_1238,SST,3.0.7,60.08272622484566,
go,sst_images/Right_Arrow.bmp,None,2,1617,None,0,161,161,161,,1,0,go,0.3,1.617,2.617,0.5713979260035558,009,Scanner,L,2,2019_Sep_06_1238,SST,3.0.7,60.08272622484566,
go,sst_images/Left_Arrow.bmp,None,1,924,None,0,162,162,162,,2,0,go,0.3,0.924,1.924,0.7346636910006055,009,Scanner,L,2,2019_Sep_06_1238,SST,3.0.7,60.08272622484566,
go,sst_images/Right_Arrow.bmp,None,2,736,None,0,163,163,163,,1,0,go,0.3,0.736,1.736,0.6209419909937424,009,Scanner,L,2,2019_Sep_06_1238,SST,3.0.7,60.08272622484566,
go,sst_images/Right_Arrow.bmp,None,2,984,None,0,164,164,164,,1,0,go,0.3,0.984,1.984,0.8548684069974115,009,Scanner,L,2,2019_Sep_06_1238,SST,3.0.7,60.08272622484566,
stop,sst_images/Left_Arrow.bmp,sst_images/Stop_Arrow.bmp,none,864,None,0,165,165,165,,None,1,stop,0.35,0.864,1.864,,009,Scanner,L,2,2019_Sep_06_1238,SST,3.0.7,60.08272622484566,
go,sst_images/Right_Arrow.bmp,None,2,815,None,0,166,166,166,,1,0,go,0.35,0.815,1.815,0.6379000609958894,009,Scanner,L,2,2019_Sep_06_1238,SST,3.0.7,60.08272622484566,
go,sst_images/Left_Arrow.bmp,None,1,762,None,0,167,167,167,,2,0,go,0.35,0.762,1.762,0.6216993330017431,009,Scanner,L,2,2019_Sep_06_1238,SST,3.0.7,60.08272622484566,
go,sst_images/Right_Arrow.bmp,None,2,885,None,0,168,168,168,,1,0,go,0.35,0.885,1.885,0.6527279929941869,009,Scanner,L,2,2019_Sep_06_1238,SST,3.0.7,60.08272622484566,
stop,sst_images/Right_Arrow.bmp,sst_images/Stop_Arrow.bmp,none,703,None,0,169,169,169,,None,1,stop,0.39999999999999997,0.703,1.703,,009,Scanner,L,2,2019_Sep_06_1238,SST,3.0.7,60.08272622484566,
go,sst_images/Right_Arrow.bmp,None,2,841,None,0,170,170,170,,1,0,go,0.39999999999999997,0.841,1.841,0.6693862550018821,009,Scanner,L,2,2019_Sep_06_1238,SST,3.0.7,60.08272622484566,
go,sst_images/Left_Arrow.bmp,None,1,1124,None,0,171,171,171,,2,0,go,0.39999999999999997,1.124,2.124,0.6042492470005527,009,Scanner,L,2,2019_Sep_06_1238,SST,3.0.7,60.08272622484566,
go,sst_images/Right_Arrow.bmp,None,2,875,None,0,172,172,172,,1,0,go,0.39999999999999997,0.875,1.875,0.8375525919982465,009,Scanner,L,2,2019_Sep_06_1238,SST,3.0.7,60.08272622484566,
go,sst_images/Right_Arrow.bmp,None,2,803,None,0,173,173,173,,1,0,go,0.39999999999999997,0.803,1.803,0.7176030909977271,009,Scanner,L,2,2019_Sep_06_1238,SST,3.0.7,60.08272622484566,
go,sst_images/Right_Arrow.bmp,None,2,726,None,0,174,174,174,,1,0,go,0.39999999999999997,0.726,1.726,0.869445843003632,009,Scanner,L,2,2019_Sep_06_1238,SST,3.0.7,60.08272622484566,
stop,sst_images/Left_Arrow.bmp,sst_images/Stop_Arrow.bmp,none,968,None,0,175,175,175,,None,1,stop,0.44999999999999996,0.968,1.968,,009,Scanner,L,2,2019_Sep_06_1238,SST,3.0.7,60.08272622484566,
go,sst_images/Left_Arrow.bmp,None,1,1183,None,0,176,176,176,,2,0,go,0.44999999999999996,1.183,2.183,0.9384995050058933,009,Scanner,L,2,2019_Sep_06_1238,SST,3.0.7,60.08272622484566,
go,sst_images/Right_Arrow.bmp,None,2,1031,None,0,177,177,177,,1,0,go,0.44999999999999996,1.031,2.0309999999999997,0.8543944129996817,009,Scanner,L,2,2019_Sep_06_1238,SST,3.0.7,60.08272622484566,
go,sst_images/Left_Arrow.bmp,None,1,1034,None,0,178,178,178,,2,0,go,0.44999999999999996,1.034,2.034,0.787828353997611,009,Scanner,L,2,2019_Sep_06_1238,SST,3.0.7,60.08272622484566,
go,sst_images/Right_Arrow.bmp,None,2,794,4787.0,0,179,179,179,,None,0,go,0.44999999999999996,0.794,1.794,,009,Scanner,L,2,2019_Sep_06_1238,SST,3.0.7,60.08272622484566,
