trial_type,arrow_1,arrow_2,corrAns,jitter,run_end_fixation,trials.thisRepN,trials.thisTrialN,trials.thisN,trials.thisIndex,randomized TrialOrder,key_response.keys,key_response.corr,key_response.rt,trial_t.routineEndVal,ss_delay,iti_duration,SOA,participant,prac_or_scan,handedness,run,date,expName,psychopyVersion,frameRate,
go,sst_images/Left_Arrow.bmp,None,1,924,None,0,0,0,0,11,1,1,0.5706967350124614,go,0.05,0.924,1.924,010,Scanner,R,1,2019_Sep_07_1317,SST,3.0.7,60.40894767552998,
go,sst_images/Right_Arrow.bmp,None,2,771,None,0,1,1,1,,2,1,0.3710615379968658,go,0.05,0.771,1.771,010,Scanner,R,1,2019_Sep_07_1317,SST,3.0.7,60.40894767552998,
stop,sst_images/Right_Arrow.bmp,sst_images/Stop_Arrow.bmp,none,954,None,0,2,2,2,,None,1,,stop,0.1,0.954,1.954,010,Scanner,R,1,2019_Sep_07_1317,SST,3.0.7,60.40894767552998,
go,sst_images/Right_Arrow.bmp,None,2,902,None,0,3,3,3,,2,1,0.40413688600528985,go,0.1,0.902,1.9020000000000001,010,Scanner,R,1,2019_Sep_07_1317,SST,3.0.7,60.40894767552998,
go,sst_images/Left_Arrow.bmp,None,1,711,None,0,4,4,4,,1,1,0.3353553880006075,go,0.1,0.711,1.7109999999999999,010,Scanner,R,1,2019_Sep_07_1317,SST,3.0.7,60.40894767552998,
stop,sst_images/Left_Arrow.bmp,sst_images/Stop_Arrow.bmp,none,718,None,0,5,5,5,,2,0,0.3018742599961115,stop,0.05,0.718,1.8161257400038886,010,Scanner,R,1,2019_Sep_07_1317,SST,3.0.7,60.40894767552998,
go,sst_images/Left_Arrow.bmp,None,1,875,None,0,6,6,6,,1,1,0.33778394700493664,go,0.05,0.875,1.875,010,Scanner,R,1,2019_Sep_07_1317,SST,3.0.7,60.40894767552998,
go,sst_images/Right_Arrow.bmp,None,2,798,None,0,7,7,7,,2,1,0.3700548300112132,go,0.05,0.798,1.798,010,Scanner,R,1,2019_Sep_07_1317,SST,3.0.7,60.40894767552998,
go,sst_images/Left_Arrow.bmp,None,1,794,None,0,8,8,8,,1,1,0.2526605700113578,go,0.05,0.794,1.794,010,Scanner,R,1,2019_Sep_07_1317,SST,3.0.7,60.40894767552998,
stop,sst_images/Left_Arrow.bmp,sst_images/Stop_Arrow.bmp,none,704,None,0,9,9,9,,2,0,0.3146634940057993,stop,0.0,0.704,1.7393365059942008,010,Scanner,R,1,2019_Sep_07_1317,SST,3.0.7,60.40894767552998,
go,sst_images/Right_Arrow.bmp,None,2,731,None,0,10,10,10,,1,0,0.46573715399426874,go,0.0,0.731,1.7309999999999999,010,Scanner,R,1,2019_Sep_07_1317,SST,3.0.7,60.40894767552998,
go,sst_images/Right_Arrow.bmp,None,2,715,None,0,11,11,11,,2,1,0.4754126659972826,go,0.0,0.715,1.7149999999999999,010,Scanner,R,1,2019_Sep_07_1317,SST,3.0.7,60.40894767552998,
stop,sst_images/Right_Arrow.bmp,sst_images/Stop_Arrow.bmp,none,879,None,0,12,12,12,,None,1,,stop,0.0,0.879,1.879,010,Scanner,R,1,2019_Sep_07_1317,SST,3.0.7,60.40894767552998,
go,sst_images/Left_Arrow.bmp,None,1,1153,None,0,13,13,13,,1,1,0.3527350460062735,go,0.0,1.153,2.153,010,Scanner,R,1,2019_Sep_07_1317,SST,3.0.7,60.40894767552998,
go,sst_images/Right_Arrow.bmp,None,2,1426,None,0,14,14,14,,2,1,0.38765706699632574,go,0.0,1.426,2.426,010,Scanner,R,1,2019_Sep_07_1317,SST,3.0.7,60.40894767552998,
go,sst_images/Left_Arrow.bmp,None,1,776,None,0,15,15,15,,1,1,0.36151943399454467,go,0.0,0.776,1.776,010,Scanner,R,1,2019_Sep_07_1317,SST,3.0.7,60.40894767552998,
go,sst_images/Left_Arrow.bmp,None,1,757,None,0,16,16,16,,1,1,0.4043376259942306,go,0.0,0.757,1.7570000000000001,010,Scanner,R,1,2019_Sep_07_1317,SST,3.0.7,60.40894767552998,
go,sst_images/Left_Arrow.bmp,None,1,735,None,0,17,17,17,,1,1,0.4368163170001935,go,0.0,0.735,1.7349999999999999,010,Scanner,R,1,2019_Sep_07_1317,SST,3.0.7,60.40894767552998,
stop,sst_images/Right_Arrow.bmp,sst_images/Stop_Arrow.bmp,none,855,None,0,18,18,18,,None,1,,stop,0.0,0.855,1.855,010,Scanner,R,1,2019_Sep_07_1317,SST,3.0.7,60.40894767552998,
go,sst_images/Right_Arrow.bmp,None,2,787,None,0,19,19,19,,2,1,0.3774264929961646,go,0.0,0.787,1.787,010,Scanner,R,1,2019_Sep_07_1317,SST,3.0.7,60.40894767552998,
go,sst_images/Left_Arrow.bmp,None,1,886,None,0,20,20,20,,1,1,0.3700603010074701,go,0.0,0.886,1.8860000000000001,010,Scanner,R,1,2019_Sep_07_1317,SST,3.0.7,60.40894767552998,
go,sst_images/Left_Arrow.bmp,None,1,872,None,0,21,21,21,,1,1,0.3612317119986983,go,0.0,0.872,1.8719999999999999,010,Scanner,R,1,2019_Sep_07_1317,SST,3.0.7,60.40894767552998,
stop,sst_images/Left_Arrow.bmp,sst_images/Stop_Arrow.bmp,none,843,None,0,22,22,22,,None,1,,stop,0.0,0.843,1.843,010,Scanner,R,1,2019_Sep_07_1317,SST,3.0.7,60.40894767552998,
go,sst_images/Right_Arrow.bmp,None,2,717,None,0,23,23,23,,2,1,0.3711975649930537,go,0.0,0.717,1.717,010,Scanner,R,1,2019_Sep_07_1317,SST,3.0.7,60.40894767552998,
go,sst_images/Left_Arrow.bmp,None,1,800,None,0,24,24,24,,1,1,0.2866250009974465,go,0.0,0.8,1.8,010,Scanner,R,1,2019_Sep_07_1317,SST,3.0.7,60.40894767552998,
go,sst_images/Right_Arrow.bmp,None,2,836,None,0,25,25,25,,2,1,0.35525677300756797,go,0.0,0.836,1.8359999999999999,010,Scanner,R,1,2019_Sep_07_1317,SST,3.0.7,60.40894767552998,
stop,sst_images/Right_Arrow.bmp,sst_images/Stop_Arrow.bmp,none,1015,None,0,26,26,26,,1,0,0.3142614670068724,stop,0.0,1.015,2.0007385329931275,010,Scanner,R,1,2019_Sep_07_1317,SST,3.0.7,60.40894767552998,
go,sst_images/Left_Arrow.bmp,None,1,718,None,0,27,27,27,,1,1,0.3879640759987524,go,0.0,0.718,1.718,010,Scanner,R,1,2019_Sep_07_1317,SST,3.0.7,60.40894767552998,
go,sst_images/Right_Arrow.bmp,None,2,807,None,0,28,28,28,,2,1,0.3884061739954632,go,0.0,0.807,1.807,010,Scanner,R,1,2019_Sep_07_1317,SST,3.0.7,60.40894767552998,
go,sst_images/Right_Arrow.bmp,None,2,757,None,0,29,29,29,,1,0,0.3965195060009137,go,0.0,0.757,1.7570000000000001,010,Scanner,R,1,2019_Sep_07_1317,SST,3.0.7,60.40894767552998,
go,sst_images/Left_Arrow.bmp,None,1,974,None,0,30,30,30,,1,1,0.3783617479930399,go,0.0,0.974,1.974,010,Scanner,R,1,2019_Sep_07_1317,SST,3.0.7,60.40894767552998,
go,sst_images/Right_Arrow.bmp,None,2,1107,None,0,31,31,31,,2,1,0.36018146699643694,go,0.0,1.107,2.107,010,Scanner,R,1,2019_Sep_07_1317,SST,3.0.7,60.40894767552998,
go,sst_images/Right_Arrow.bmp,None,2,777,None,0,32,32,32,,1,0,0.3763150759914424,go,0.0,0.777,1.7770000000000001,010,Scanner,R,1,2019_Sep_07_1317,SST,3.0.7,60.40894767552998,
stop,sst_images/Right_Arrow.bmp,sst_images/Stop_Arrow.bmp,none,723,None,0,33,33,33,,None,1,,stop,0.0,0.723,1.723,010,Scanner,R,1,2019_Sep_07_1317,SST,3.0.7,60.40894767552998,
go,sst_images/Left_Arrow.bmp,None,1,963,None,0,34,34,34,,1,1,0.29248896399803925,go,0.0,0.963,1.963,010,Scanner,R,1,2019_Sep_07_1317,SST,3.0.7,60.40894767552998,
go,sst_images/Right_Arrow.bmp,None,2,1186,None,0,35,35,35,,2,1,0.38571798100019805,go,0.0,1.186,2.186,010,Scanner,R,1,2019_Sep_07_1317,SST,3.0.7,60.40894767552998,
go,sst_images/Left_Arrow.bmp,None,1,793,None,0,36,36,36,,1,1,0.3102485150011489,go,0.0,0.793,1.7930000000000001,010,Scanner,R,1,2019_Sep_07_1317,SST,3.0.7,60.40894767552998,
go,sst_images/Left_Arrow.bmp,None,1,1207,None,0,37,37,37,,1,1,0.42096987600962166,go,0.0,1.207,2.207,010,Scanner,R,1,2019_Sep_07_1317,SST,3.0.7,60.40894767552998,
go,sst_images/Right_Arrow.bmp,None,2,800,None,0,38,38,38,,2,1,0.5106954590009991,go,0.0,0.8,1.8,010,Scanner,R,1,2019_Sep_07_1317,SST,3.0.7,60.40894767552998,
go,sst_images/Right_Arrow.bmp,None,2,1156,None,0,39,39,39,,2,1,0.44528496998827904,go,0.0,1.156,2.1559999999999997,010,Scanner,R,1,2019_Sep_07_1317,SST,3.0.7,60.40894767552998,
stop,sst_images/Left_Arrow.bmp,sst_images/Stop_Arrow.bmp,none,1032,None,0,40,40,40,,None,1,,stop,0.0,1.032,2.032,010,Scanner,R,1,2019_Sep_07_1317,SST,3.0.7,60.40894767552998,
go,sst_images/Left_Arrow.bmp,None,1,1088,None,0,41,41,41,,1,1,0.31043808000686113,go,0.0,1.088,2.088,010,Scanner,R,1,2019_Sep_07_1317,SST,3.0.7,60.40894767552998,
go,sst_images/Left_Arrow.bmp,None,1,922,None,0,42,42,42,,2,0,0.406780934004928,go,0.0,0.922,1.9220000000000002,010,Scanner,R,1,2019_Sep_07_1317,SST,3.0.7,60.40894767552998,
go,sst_images/Right_Arrow.bmp,None,2,733,None,0,43,43,43,,2,1,0.35946745800902136,go,0.0,0.733,1.733,010,Scanner,R,1,2019_Sep_07_1317,SST,3.0.7,60.40894767552998,
stop,sst_images/Right_Arrow.bmp,sst_images/Stop_Arrow.bmp,none,717,None,0,44,44,44,,None,1,,stop,0.0,0.717,1.7169999999999999,010,Scanner,R,1,2019_Sep_07_1317,SST,3.0.7,60.40894767552998,
go,sst_images/Left_Arrow.bmp,None,1,870,None,0,45,45,45,,1,1,0.3273379339952953,go,0.0,0.87,1.87,010,Scanner,R,1,2019_Sep_07_1317,SST,3.0.7,60.40894767552998,
go,sst_images/Left_Arrow.bmp,None,1,765,None,0,46,46,46,,1,1,0.3746366470004432,go,0.0,0.765,1.7650000000000001,010,Scanner,R,1,2019_Sep_07_1317,SST,3.0.7,60.40894767552998,
go,sst_images/Right_Arrow.bmp,None,2,861,None,0,47,47,47,,2,1,0.35844543599523604,go,0.0,0.861,1.861,010,Scanner,R,1,2019_Sep_07_1317,SST,3.0.7,60.40894767552998,
go,sst_images/Right_Arrow.bmp,None,2,772,None,0,48,48,48,,2,1,0.344401561000268,go,0.0,0.772,1.772,010,Scanner,R,1,2019_Sep_07_1317,SST,3.0.7,60.40894767552998,
go,sst_images/Right_Arrow.bmp,None,2,937,None,0,49,49,49,,2,1,0.37650089200178627,go,0.0,0.937,1.937,010,Scanner,R,1,2019_Sep_07_1317,SST,3.0.7,60.40894767552998,
stop,sst_images/Left_Arrow.bmp,sst_images/Stop_Arrow.bmp,none,1296,None,0,50,50,50,,None,1,,stop,0.0,1.296,2.296,010,Scanner,R,1,2019_Sep_07_1317,SST,3.0.7,60.40894767552998,
go,sst_images/Left_Arrow.bmp,None,1,757,None,0,51,51,51,,1,1,0.42689416799112223,go,0.0,0.757,1.7570000000000001,010,Scanner,R,1,2019_Sep_07_1317,SST,3.0.7,60.40894767552998,
go,sst_images/Left_Arrow.bmp,None,1,751,None,0,52,52,52,,1,1,0.6599302510003326,go,0.0,0.751,1.751,010,Scanner,R,1,2019_Sep_07_1317,SST,3.0.7,60.40894767552998,
go,sst_images/Left_Arrow.bmp,None,1,900,None,0,53,53,53,,1,1,0.42704816500190645,go,0.0,0.9,1.9,010,Scanner,R,1,2019_Sep_07_1317,SST,3.0.7,60.40894767552998,
go,sst_images/Right_Arrow.bmp,None,2,815,None,0,54,54,54,,2,1,0.3427614510001149,go,0.0,0.815,1.815,010,Scanner,R,1,2019_Sep_07_1317,SST,3.0.7,60.40894767552998,
stop,sst_images/Right_Arrow.bmp,sst_images/Stop_Arrow.bmp,none,865,None,0,55,55,55,,None,1,,stop,0.0,0.865,1.865,010,Scanner,R,1,2019_Sep_07_1317,SST,3.0.7,60.40894767552998,
go,sst_images/Right_Arrow.bmp,None,2,701,None,0,56,56,56,,2,1,0.4758627690025605,go,0.0,0.701,1.701,010,Scanner,R,1,2019_Sep_07_1317,SST,3.0.7,60.40894767552998,
go,sst_images/Left_Arrow.bmp,None,1,963,None,0,57,57,57,,1,1,0.34324719799042214,go,0.0,0.963,1.963,010,Scanner,R,1,2019_Sep_07_1317,SST,3.0.7,60.40894767552998,
go,sst_images/Left_Arrow.bmp,None,1,757,None,0,58,58,58,,1,1,0.39201313599187415,go,0.0,0.757,1.7570000000000001,010,Scanner,R,1,2019_Sep_07_1317,SST,3.0.7,60.40894767552998,
go,sst_images/Left_Arrow.bmp,None,1,799,None,0,59,59,59,,1,1,0.3555834240105469,go,0.0,0.799,1.799,010,Scanner,R,1,2019_Sep_07_1317,SST,3.0.7,60.40894767552998,
go,sst_images/Right_Arrow.bmp,None,2,862,None,0,60,60,60,,2,1,0.3229251079901587,go,0.0,0.862,1.862,010,Scanner,R,1,2019_Sep_07_1317,SST,3.0.7,60.40894767552998,
stop,sst_images/Right_Arrow.bmp,sst_images/Stop_Arrow.bmp,none,1102,None,0,61,61,61,,None,1,,stop,0.0,1.102,2.102,010,Scanner,R,1,2019_Sep_07_1317,SST,3.0.7,60.40894767552998,
go,sst_images/Left_Arrow.bmp,None,1,704,None,0,62,62,62,,1,1,0.29121047699300107,go,0.0,0.704,1.704,010,Scanner,R,1,2019_Sep_07_1317,SST,3.0.7,60.40894767552998,
go,sst_images/Left_Arrow.bmp,None,1,928,None,0,63,63,63,,1,1,0.31962035200558603,go,0.0,0.928,1.928,010,Scanner,R,1,2019_Sep_07_1317,SST,3.0.7,60.40894767552998,
go,sst_images/Right_Arrow.bmp,None,2,1164,None,0,64,64,64,,1,0,0.3587757860077545,go,0.0,1.164,2.1639999999999997,010,Scanner,R,1,2019_Sep_07_1317,SST,3.0.7,60.40894767552998,
go,sst_images/Right_Arrow.bmp,None,2,746,None,0,65,65,65,,2,1,0.37142253799538594,go,0.0,0.746,1.746,010,Scanner,R,1,2019_Sep_07_1317,SST,3.0.7,60.40894767552998,
go,sst_images/Left_Arrow.bmp,None,1,1003,None,0,66,66,66,,1,1,0.3715853500034427,go,0.0,1.003,2.003,010,Scanner,R,1,2019_Sep_07_1317,SST,3.0.7,60.40894767552998,
stop,sst_images/Left_Arrow.bmp,sst_images/Stop_Arrow.bmp,none,918,None,0,67,67,67,,None,1,,stop,0.0,0.918,1.918,010,Scanner,R,1,2019_Sep_07_1317,SST,3.0.7,60.40894767552998,
go,sst_images/Right_Arrow.bmp,None,2,1036,None,0,68,68,68,,2,1,0.2908086929965066,go,0.0,1.036,2.036,010,Scanner,R,1,2019_Sep_07_1317,SST,3.0.7,60.40894767552998,
go,sst_images/Left_Arrow.bmp,None,1,1122,None,0,69,69,69,,1,1,0.3376541080069728,go,0.0,1.122,2.122,010,Scanner,R,1,2019_Sep_07_1317,SST,3.0.7,60.40894767552998,
go,sst_images/Right_Arrow.bmp,None,2,1296,None,0,70,70,70,,2,1,0.3540368789981585,go,0.0,1.296,2.2960000000000003,010,Scanner,R,1,2019_Sep_07_1317,SST,3.0.7,60.40894767552998,
go,sst_images/Right_Arrow.bmp,None,2,1072,None,0,71,71,71,,2,1,0.3713487939967308,go,0.0,1.072,2.072,010,Scanner,R,1,2019_Sep_07_1317,SST,3.0.7,60.40894767552998,
go,sst_images/Left_Arrow.bmp,None,1,844,None,0,72,72,72,,1,1,0.3714912299910793,go,0.0,0.844,1.8439999999999999,010,Scanner,R,1,2019_Sep_07_1317,SST,3.0.7,60.40894767552998,
go,sst_images/Right_Arrow.bmp,None,2,935,None,0,73,73,73,,2,1,0.38674329899367876,go,0.0,0.935,1.935,010,Scanner,R,1,2019_Sep_07_1317,SST,3.0.7,60.40894767552998,
go,sst_images/Left_Arrow.bmp,None,1,1079,None,0,74,74,74,,1,1,0.35422676500456873,go,0.0,1.079,2.0789999999999997,010,Scanner,R,1,2019_Sep_07_1317,SST,3.0.7,60.40894767552998,
go,sst_images/Right_Arrow.bmp,None,2,1187,None,0,75,75,75,,2,1,0.3212133049964905,go,0.0,1.187,2.1870000000000003,010,Scanner,R,1,2019_Sep_07_1317,SST,3.0.7,60.40894767552998,
go,sst_images/Left_Arrow.bmp,None,1,1200,None,0,76,76,76,,1,1,0.371739741996862,go,0.0,1.2,2.2,010,Scanner,R,1,2019_Sep_07_1317,SST,3.0.7,60.40894767552998,
go,sst_images/Right_Arrow.bmp,None,2,746,None,0,77,77,77,,2,1,0.32200182099768426,go,0.0,0.746,1.746,010,Scanner,R,1,2019_Sep_07_1317,SST,3.0.7,60.40894767552998,
go,sst_images/Right_Arrow.bmp,None,2,892,None,0,78,78,78,,1,0,0.3065100439998787,go,0.0,0.892,1.892,010,Scanner,R,1,2019_Sep_07_1317,SST,3.0.7,60.40894767552998,
go,sst_images/Left_Arrow.bmp,None,1,858,None,0,79,79,79,,1,1,0.3051141030009603,go,0.0,0.858,1.858,010,Scanner,R,1,2019_Sep_07_1317,SST,3.0.7,60.40894767552998,
stop,sst_images/Right_Arrow.bmp,sst_images/Stop_Arrow.bmp,none,895,None,0,80,80,80,,None,1,,stop,0.0,0.895,1.895,010,Scanner,R,1,2019_Sep_07_1317,SST,3.0.7,60.40894767552998,
go,sst_images/Left_Arrow.bmp,None,1,740,None,0,81,81,81,,1,1,0.34033585799625143,go,0.0,0.74,1.74,010,Scanner,R,1,2019_Sep_07_1317,SST,3.0.7,60.40894767552998,
go,sst_images/Right_Arrow.bmp,None,2,935,None,0,82,82,82,,2,1,0.34214490299928,go,0.0,0.935,1.935,010,Scanner,R,1,2019_Sep_07_1317,SST,3.0.7,60.40894767552998,
go,sst_images/Right_Arrow.bmp,None,2,1335,None,0,83,83,83,,2,1,0.37066127599973697,go,0.0,1.335,2.335,010,Scanner,R,1,2019_Sep_07_1317,SST,3.0.7,60.40894767552998,
go,sst_images/Right_Arrow.bmp,None,2,919,None,0,84,84,84,,2,1,0.38765589700778946,go,0.0,0.919,1.919,010,Scanner,R,1,2019_Sep_07_1317,SST,3.0.7,60.40894767552998,
go,sst_images/Left_Arrow.bmp,None,1,800,None,0,85,85,85,,1,1,0.639285002995166,go,0.0,0.8,1.8,010,Scanner,R,1,2019_Sep_07_1317,SST,3.0.7,60.40894767552998,
stop,sst_images/Right_Arrow.bmp,sst_images/Stop_Arrow.bmp,none,734,None,0,86,86,86,,None,1,,stop,0.0,0.734,1.734,010,Scanner,R,1,2019_Sep_07_1317,SST,3.0.7,60.40894767552998,
go,sst_images/Left_Arrow.bmp,None,1,714,None,0,87,87,87,,1,1,0.40454574300383683,go,0.0,0.714,1.714,010,Scanner,R,1,2019_Sep_07_1317,SST,3.0.7,60.40894767552998,
go,sst_images/Right_Arrow.bmp,None,2,977,None,0,88,88,88,,2,1,0.35518150799907744,go,0.0,0.977,1.9769999999999999,010,Scanner,R,1,2019_Sep_07_1317,SST,3.0.7,60.40894767552998,
go,sst_images/Left_Arrow.bmp,None,1,753,None,0,89,89,89,,1,1,0.3546013400045922,go,0.0,0.753,1.7530000000000001,010,Scanner,R,1,2019_Sep_07_1317,SST,3.0.7,60.40894767552998,
go,sst_images/Right_Arrow.bmp,None,2,964,None,0,90,90,90,,2,1,0.32052568599465303,go,0.0,0.964,1.964,010,Scanner,R,1,2019_Sep_07_1317,SST,3.0.7,60.40894767552998,
go,sst_images/Left_Arrow.bmp,None,1,1308,None,0,91,91,91,,1,1,0.37142791300721,go,0.0,1.308,2.308,010,Scanner,R,1,2019_Sep_07_1317,SST,3.0.7,60.40894767552998,
go,sst_images/Right_Arrow.bmp,None,2,812,None,0,92,92,92,,2,1,0.3031187199958367,go,0.0,0.812,1.812,010,Scanner,R,1,2019_Sep_07_1317,SST,3.0.7,60.40894767552998,
go,sst_images/Left_Arrow.bmp,None,1,731,None,0,93,93,93,,1,1,0.2700434819998918,go,0.0,0.731,1.7309999999999999,010,Scanner,R,1,2019_Sep_07_1317,SST,3.0.7,60.40894767552998,
go,sst_images/Left_Arrow.bmp,None,1,740,None,0,94,94,94,,2,0,0.302883787007886,go,0.0,0.74,1.74,010,Scanner,R,1,2019_Sep_07_1317,SST,3.0.7,60.40894767552998,
go,sst_images/Left_Arrow.bmp,None,1,979,None,0,95,95,95,,1,1,0.4546404180000536,go,0.0,0.979,1.979,010,Scanner,R,1,2019_Sep_07_1317,SST,3.0.7,60.40894767552998,
go,sst_images/Right_Arrow.bmp,None,2,916,None,0,96,96,96,,2,1,0.3198718860076042,go,0.0,0.916,1.916,010,Scanner,R,1,2019_Sep_07_1317,SST,3.0.7,60.40894767552998,
go,sst_images/Left_Arrow.bmp,None,1,1015,None,0,97,97,97,,1,1,0.32079584899474867,go,0.0,1.015,2.0149999999999997,010,Scanner,R,1,2019_Sep_07_1317,SST,3.0.7,60.40894767552998,
go,sst_images/Right_Arrow.bmp,None,2,855,None,0,98,98,98,,2,1,0.43548347998876125,go,0.0,0.855,1.855,010,Scanner,R,1,2019_Sep_07_1317,SST,3.0.7,60.40894767552998,
go,sst_images/Right_Arrow.bmp,None,2,802,None,0,99,99,99,,2,1,0.41949805499461945,go,0.0,0.802,1.802,010,Scanner,R,1,2019_Sep_07_1317,SST,3.0.7,60.40894767552998,
go,sst_images/Left_Arrow.bmp,None,1,798,None,0,100,100,100,,1,1,0.40202627499820665,go,0.0,0.798,1.798,010,Scanner,R,1,2019_Sep_07_1317,SST,3.0.7,60.40894767552998,
go,sst_images/Right_Arrow.bmp,None,2,961,None,0,101,101,101,,2,1,0.2872202459984692,go,0.0,0.961,1.9609999999999999,010,Scanner,R,1,2019_Sep_07_1317,SST,3.0.7,60.40894767552998,
stop,sst_images/Left_Arrow.bmp,sst_images/Stop_Arrow.bmp,none,753,None,0,102,102,102,,None,1,,stop,0.0,0.753,1.753,010,Scanner,R,1,2019_Sep_07_1317,SST,3.0.7,60.40894767552998,
go,sst_images/Right_Arrow.bmp,None,2,1378,None,0,103,103,103,,2,1,0.3700547039916273,go,0.0,1.378,2.378,010,Scanner,R,1,2019_Sep_07_1317,SST,3.0.7,60.40894767552998,
go,sst_images/Left_Arrow.bmp,None,1,723,None,0,104,104,104,,1,1,0.3388746889977483,go,0.0,0.723,1.7229999999999999,010,Scanner,R,1,2019_Sep_07_1317,SST,3.0.7,60.40894767552998,
stop,sst_images/Left_Arrow.bmp,sst_images/Stop_Arrow.bmp,none,701,None,0,105,105,105,,None,1,,stop,0.0,0.701,1.7009999999999998,010,Scanner,R,1,2019_Sep_07_1317,SST,3.0.7,60.40894767552998,
go,sst_images/Left_Arrow.bmp,None,1,1378,None,0,106,106,106,,1,1,0.3541411079932004,go,0.0,1.378,2.378,010,Scanner,R,1,2019_Sep_07_1317,SST,3.0.7,60.40894767552998,
go,sst_images/Right_Arrow.bmp,None,2,1670,None,0,107,107,107,,2,1,0.33739163698919583,go,0.0,1.67,2.67,010,Scanner,R,1,2019_Sep_07_1317,SST,3.0.7,60.40894767552998,
go,sst_images/Right_Arrow.bmp,None,2,836,None,0,108,108,108,,2,1,0.4694840320007643,go,0.0,0.836,1.8359999999999999,010,Scanner,R,1,2019_Sep_07_1317,SST,3.0.7,60.40894767552998,
go,sst_images/Left_Arrow.bmp,None,1,809,None,0,109,109,109,,1,1,0.4876768089889083,go,0.0,0.809,1.8090000000000002,010,Scanner,R,1,2019_Sep_07_1317,SST,3.0.7,60.40894767552998,
go,sst_images/Right_Arrow.bmp,None,2,828,None,0,110,110,110,,2,1,0.5030630809924332,go,0.0,0.828,1.8279999999999998,010,Scanner,R,1,2019_Sep_07_1317,SST,3.0.7,60.40894767552998,
go,sst_images/Left_Arrow.bmp,None,1,825,None,0,111,111,111,,1,1,0.32113145900075324,go,0.0,0.825,1.825,010,Scanner,R,1,2019_Sep_07_1317,SST,3.0.7,60.40894767552998,
go,sst_images/Right_Arrow.bmp,None,2,735,None,0,112,112,112,,2,1,0.2862684900028398,go,0.0,0.735,1.7349999999999999,010,Scanner,R,1,2019_Sep_07_1317,SST,3.0.7,60.40894767552998,
stop,sst_images/Right_Arrow.bmp,sst_images/Stop_Arrow.bmp,none,721,None,0,113,113,113,,None,1,,stop,0.0,0.721,1.7209999999999999,010,Scanner,R,1,2019_Sep_07_1317,SST,3.0.7,60.40894767552998,
go,sst_images/Left_Arrow.bmp,None,1,853,None,0,114,114,114,,1,1,0.36829421200673096,go,0.0,0.853,1.853,010,Scanner,R,1,2019_Sep_07_1317,SST,3.0.7,60.40894767552998,
go,sst_images/Right_Arrow.bmp,None,2,869,None,0,115,115,115,,2,1,0.4542742880003061,go,0.0,0.869,1.869,010,Scanner,R,1,2019_Sep_07_1317,SST,3.0.7,60.40894767552998,
stop,sst_images/Left_Arrow.bmp,sst_images/Stop_Arrow.bmp,none,1088,None,0,116,116,116,,None,1,,stop,0.0,1.088,2.088,010,Scanner,R,1,2019_Sep_07_1317,SST,3.0.7,60.40894767552998,
go,sst_images/Left_Arrow.bmp,None,1,767,None,0,117,117,117,,1,1,0.3210289659909904,go,0.0,0.767,1.767,010,Scanner,R,1,2019_Sep_07_1317,SST,3.0.7,60.40894767552998,
go,sst_images/Right_Arrow.bmp,None,2,724,None,0,118,118,118,,2,1,0.3537311630061595,go,0.0,0.724,1.724,010,Scanner,R,1,2019_Sep_07_1317,SST,3.0.7,60.40894767552998,
go,sst_images/Left_Arrow.bmp,None,1,1377,None,0,119,119,119,,1,1,0.30486378200293984,go,0.0,1.377,2.377,010,Scanner,R,1,2019_Sep_07_1317,SST,3.0.7,60.40894767552998,
go,sst_images/Right_Arrow.bmp,None,2,817,None,0,120,120,120,,2,1,0.43756434199167415,go,0.0,0.817,1.817,010,Scanner,R,1,2019_Sep_07_1317,SST,3.0.7,60.40894767552998,
stop,sst_images/Left_Arrow.bmp,sst_images/Stop_Arrow.bmp,none,1335,None,0,121,121,121,,None,1,,stop,0.0,1.335,2.335,010,Scanner,R,1,2019_Sep_07_1317,SST,3.0.7,60.40894767552998,
go,sst_images/Left_Arrow.bmp,None,1,1260,None,0,122,122,122,,1,1,0.3014371919998666,go,0.0,1.26,2.26,010,Scanner,R,1,2019_Sep_07_1317,SST,3.0.7,60.40894767552998,
go,sst_images/Right_Arrow.bmp,None,2,935,None,0,123,123,123,,2,1,0.3380849700042745,go,0.0,0.935,1.935,010,Scanner,R,1,2019_Sep_07_1317,SST,3.0.7,60.40894767552998,
go,sst_images/Right_Arrow.bmp,None,2,989,None,0,124,124,124,,2,1,0.5017198650020873,go,0.0,0.989,1.9889999999999999,010,Scanner,R,1,2019_Sep_07_1317,SST,3.0.7,60.40894767552998,
go,sst_images/Left_Arrow.bmp,None,1,853,None,0,125,125,125,,1,1,0.3526789489988005,go,0.0,0.853,1.853,010,Scanner,R,1,2019_Sep_07_1317,SST,3.0.7,60.40894767552998,
stop,sst_images/Right_Arrow.bmp,sst_images/Stop_Arrow.bmp,none,763,None,0,126,126,126,,2,0,0.30108410499815363,stop,0.0,0.763,1.7619158950018463,010,Scanner,R,1,2019_Sep_07_1317,SST,3.0.7,60.40894767552998,
go,sst_images/Left_Arrow.bmp,None,1,798,None,0,127,127,127,,1,1,0.3356597570091253,go,0.0,0.798,1.798,010,Scanner,R,1,2019_Sep_07_1317,SST,3.0.7,60.40894767552998,
go,sst_images/Left_Arrow.bmp,None,1,719,None,0,128,128,128,,1,1,0.2697734570101602,go,0.0,0.719,1.7189999999999999,010,Scanner,R,1,2019_Sep_07_1317,SST,3.0.7,60.40894767552998,
go,sst_images/Right_Arrow.bmp,None,2,763,None,0,129,129,129,,2,1,0.40304420499887783,go,0.0,0.763,1.763,010,Scanner,R,1,2019_Sep_07_1317,SST,3.0.7,60.40894767552998,
go,sst_images/Left_Arrow.bmp,None,1,807,None,0,130,130,130,,1,1,0.32118002499919385,go,0.0,0.807,1.807,010,Scanner,R,1,2019_Sep_07_1317,SST,3.0.7,60.40894767552998,
go,sst_images/Left_Arrow.bmp,None,1,787,None,0,131,131,131,,1,1,0.32081732799997553,go,0.0,0.787,1.787,010,Scanner,R,1,2019_Sep_07_1317,SST,3.0.7,60.40894767552998,
go,sst_images/Left_Arrow.bmp,None,1,998,None,0,132,132,132,,2,0,0.26903002300241496,go,0.0,0.998,1.998,010,Scanner,R,1,2019_Sep_07_1317,SST,3.0.7,60.40894767552998,
stop,sst_images/Left_Arrow.bmp,sst_images/Stop_Arrow.bmp,none,821,None,0,133,133,133,,None,1,,stop,0.0,0.821,1.821,010,Scanner,R,1,2019_Sep_07_1317,SST,3.0.7,60.40894767552998,
go,sst_images/Right_Arrow.bmp,None,2,828,None,0,134,134,134,,2,1,0.43768081499729306,go,0.0,0.828,1.8279999999999998,010,Scanner,R,1,2019_Sep_07_1317,SST,3.0.7,60.40894767552998,
go,sst_images/Left_Arrow.bmp,None,1,1151,None,0,135,135,135,,1,1,0.2693872329982696,go,0.0,1.151,2.151,010,Scanner,R,1,2019_Sep_07_1317,SST,3.0.7,60.40894767552998,
go,sst_images/Left_Arrow.bmp,None,1,1240,None,0,136,136,136,,1,1,0.35474276400054805,go,0.0,1.24,2.24,010,Scanner,R,1,2019_Sep_07_1317,SST,3.0.7,60.40894767552998,
stop,sst_images/Right_Arrow.bmp,sst_images/Stop_Arrow.bmp,none,755,None,0,137,137,137,,None,1,,stop,0.0,0.755,1.7550000000000001,010,Scanner,R,1,2019_Sep_07_1317,SST,3.0.7,60.40894767552998,
go,sst_images/Right_Arrow.bmp,None,2,756,None,0,138,138,138,,2,1,0.2699073269905057,go,0.0,0.756,1.756,010,Scanner,R,1,2019_Sep_07_1317,SST,3.0.7,60.40894767552998,
go,sst_images/Right_Arrow.bmp,None,2,717,None,0,139,139,139,,1,0,0.2609820569923613,go,0.0,0.717,1.717,010,Scanner,R,1,2019_Sep_07_1317,SST,3.0.7,60.40894767552998,
go,sst_images/Left_Arrow.bmp,None,1,768,None,0,140,140,140,,1,1,0.5542391619965201,go,0.0,0.768,1.768,010,Scanner,R,1,2019_Sep_07_1317,SST,3.0.7,60.40894767552998,
stop,sst_images/Right_Arrow.bmp,sst_images/Stop_Arrow.bmp,none,845,None,0,141,141,141,,None,1,,stop,0.0,0.845,1.845,010,Scanner,R,1,2019_Sep_07_1317,SST,3.0.7,60.40894767552998,
go,sst_images/Right_Arrow.bmp,None,2,802,None,0,142,142,142,,2,1,0.37964840700442437,go,0.0,0.802,1.802,010,Scanner,R,1,2019_Sep_07_1317,SST,3.0.7,60.40894767552998,
go,sst_images/Left_Arrow.bmp,None,1,755,None,0,143,143,143,,1,1,0.38687144698633347,go,0.0,0.755,1.755,010,Scanner,R,1,2019_Sep_07_1317,SST,3.0.7,60.40894767552998,
stop,sst_images/Left_Arrow.bmp,sst_images/Stop_Arrow.bmp,none,928,None,0,144,144,144,,None,1,,stop,0.0,0.928,1.9280000000000002,010,Scanner,R,1,2019_Sep_07_1317,SST,3.0.7,60.40894767552998,
go,sst_images/Left_Arrow.bmp,None,1,918,None,0,145,145,145,,1,1,0.30445984700054396,go,0.0,0.918,1.9180000000000001,010,Scanner,R,1,2019_Sep_07_1317,SST,3.0.7,60.40894767552998,
go,sst_images/Right_Arrow.bmp,None,2,806,None,0,146,146,146,,2,1,0.26896619399485644,go,0.0,0.806,1.806,010,Scanner,R,1,2019_Sep_07_1317,SST,3.0.7,60.40894767552998,
stop,sst_images/Left_Arrow.bmp,sst_images/Stop_Arrow.bmp,none,935,None,0,147,147,147,,1,0,0.17019304499262944,stop,0.0,0.935,2.0648069550073704,010,Scanner,R,1,2019_Sep_07_1317,SST,3.0.7,60.40894767552998,
go,sst_images/Left_Arrow.bmp,None,1,733,None,0,148,148,148,,1,1,0.23693348601227626,go,0.0,0.733,1.733,010,Scanner,R,1,2019_Sep_07_1317,SST,3.0.7,60.40894767552998,
go,sst_images/Right_Arrow.bmp,None,2,866,None,0,149,149,149,,2,1,0.3861163609981304,go,0.0,0.866,1.866,010,Scanner,R,1,2019_Sep_07_1317,SST,3.0.7,60.40894767552998,
go,sst_images/Left_Arrow.bmp,None,1,799,None,0,150,150,150,,1,1,0.32028818600520026,go,0.0,0.799,1.799,010,Scanner,R,1,2019_Sep_07_1317,SST,3.0.7,60.40894767552998,
go,sst_images/Right_Arrow.bmp,None,2,777,None,0,151,151,151,,2,1,0.3341555900115054,go,0.0,0.777,1.7770000000000001,010,Scanner,R,1,2019_Sep_07_1317,SST,3.0.7,60.40894767552998,
go,sst_images/Right_Arrow.bmp,None,2,757,None,0,152,152,152,,1,0,0.2875577679951675,go,0.0,0.757,1.7570000000000001,010,Scanner,R,1,2019_Sep_07_1317,SST,3.0.7,60.40894767552998,
go,sst_images/Left_Arrow.bmp,None,1,821,None,0,153,153,153,,1,1,0.3377101299993228,go,0.0,0.821,1.821,010,Scanner,R,1,2019_Sep_07_1317,SST,3.0.7,60.40894767552998,
stop,sst_images/Left_Arrow.bmp,sst_images/Stop_Arrow.bmp,none,875,None,0,154,154,154,,None,1,,stop,0.0,0.875,1.875,010,Scanner,R,1,2019_Sep_07_1317,SST,3.0.7,60.40894767552998,
go,sst_images/Right_Arrow.bmp,None,2,798,None,0,155,155,155,,2,1,0.2697856649901951,go,0.0,0.798,1.798,010,Scanner,R,1,2019_Sep_07_1317,SST,3.0.7,60.40894767552998,
go,sst_images/Left_Arrow.bmp,None,1,766,None,0,156,156,156,,1,1,0.23805973499838728,go,0.0,0.766,1.766,010,Scanner,R,1,2019_Sep_07_1317,SST,3.0.7,60.40894767552998,
go,sst_images/Right_Arrow.bmp,None,2,1905,None,0,157,157,157,,2,1,0.27942032599821687,go,0.0,1.905,2.9050000000000002,010,Scanner,R,1,2019_Sep_07_1317,SST,3.0.7,60.40894767552998,
go,sst_images/Left_Arrow.bmp,None,1,1028,None,0,158,158,158,,1,1,0.47792008199030533,go,0.0,1.028,2.028,010,Scanner,R,1,2019_Sep_07_1317,SST,3.0.7,60.40894767552998,
go,sst_images/Right_Arrow.bmp,None,2,1093,None,0,159,159,159,,2,1,0.4113958149973769,go,0.0,1.093,2.093,010,Scanner,R,1,2019_Sep_07_1317,SST,3.0.7,60.40894767552998,
go,sst_images/Left_Arrow.bmp,None,1,718,None,0,160,160,160,,1,1,0.2619379309908254,go,0.0,0.718,1.718,010,Scanner,R,1,2019_Sep_07_1317,SST,3.0.7,60.40894767552998,
go,sst_images/Left_Arrow.bmp,None,1,934,None,0,161,161,161,,2,0,0.319379252003273,go,0.0,0.934,1.9340000000000002,010,Scanner,R,1,2019_Sep_07_1317,SST,3.0.7,60.40894767552998,
go,sst_images/Right_Arrow.bmp,None,2,926,None,0,162,162,162,,1,0,0.3708560619998025,go,0.0,0.926,1.9260000000000002,010,Scanner,R,1,2019_Sep_07_1317,SST,3.0.7,60.40894767552998,
go,sst_images/Left_Arrow.bmp,None,1,802,None,0,163,163,163,,1,1,0.31077310199907515,go,0.0,0.802,1.802,010,Scanner,R,1,2019_Sep_07_1317,SST,3.0.7,60.40894767552998,
stop,sst_images/Right_Arrow.bmp,sst_images/Stop_Arrow.bmp,none,763,None,0,164,164,164,,None,1,,stop,0.0,0.763,1.7630000000000001,010,Scanner,R,1,2019_Sep_07_1317,SST,3.0.7,60.40894767552998,
go,sst_images/Right_Arrow.bmp,None,2,730,None,0,165,165,165,,2,1,0.3050498270022217,go,0.0,0.73,1.73,010,Scanner,R,1,2019_Sep_07_1317,SST,3.0.7,60.40894767552998,
go,sst_images/Right_Arrow.bmp,None,2,773,None,0,166,166,166,,1,0,0.2942510410066461,go,0.0,0.773,1.7730000000000001,010,Scanner,R,1,2019_Sep_07_1317,SST,3.0.7,60.40894767552998,
go,sst_images/Right_Arrow.bmp,None,2,727,None,0,167,167,167,,2,1,0.26843028599978425,go,0.0,0.727,1.7269999999999999,010,Scanner,R,1,2019_Sep_07_1317,SST,3.0.7,60.40894767552998,
go,sst_images/Left_Arrow.bmp,None,1,879,None,0,168,168,168,,1,1,0.25961635999556165,go,0.0,0.879,1.879,010,Scanner,R,1,2019_Sep_07_1317,SST,3.0.7,60.40894767552998,
go,sst_images/Right_Arrow.bmp,None,2,762,None,0,169,169,169,,2,1,0.39405515301041305,go,0.0,0.762,1.762,010,Scanner,R,1,2019_Sep_07_1317,SST,3.0.7,60.40894767552998,
go,sst_images/Right_Arrow.bmp,None,2,727,None,0,170,170,170,,1,0,0.31030953500885516,go,0.0,0.727,1.7269999999999999,010,Scanner,R,1,2019_Sep_07_1317,SST,3.0.7,60.40894767552998,
stop,sst_images/Left_Arrow.bmp,sst_images/Stop_Arrow.bmp,none,1240,None,0,171,171,171,,None,1,,stop,0.0,1.24,2.2399999999999998,010,Scanner,R,1,2019_Sep_07_1317,SST,3.0.7,60.40894767552998,
go,sst_images/Left_Arrow.bmp,None,1,954,None,0,172,172,172,,1,1,0.27607666299445555,go,0.0,0.954,1.954,010,Scanner,R,1,2019_Sep_07_1317,SST,3.0.7,60.40894767552998,
go,sst_images/Right_Arrow.bmp,None,2,779,None,0,173,173,173,,2,1,0.30928907099587377,go,0.0,0.779,1.779,010,Scanner,R,1,2019_Sep_07_1317,SST,3.0.7,60.40894767552998,
go,sst_images/Right_Arrow.bmp,None,2,870,None,0,174,174,174,,2,1,0.4543405260046711,go,0.0,0.87,1.87,010,Scanner,R,1,2019_Sep_07_1317,SST,3.0.7,60.40894767552998,
go,sst_images/Right_Arrow.bmp,None,2,978,None,0,175,175,175,,2,1,0.30860707101237494,go,0.0,0.978,1.978,010,Scanner,R,1,2019_Sep_07_1317,SST,3.0.7,60.40894767552998,
go,sst_images/Left_Arrow.bmp,None,1,859,None,0,176,176,176,,1,1,0.38761084800353274,go,0.0,0.859,1.859,010,Scanner,R,1,2019_Sep_07_1317,SST,3.0.7,60.40894767552998,
go,sst_images/Right_Arrow.bmp,None,2,728,None,0,177,177,177,,1,0,0.3111147219897248,go,0.0,0.728,1.728,010,Scanner,R,1,2019_Sep_07_1317,SST,3.0.7,60.40894767552998,
go,sst_images/Left_Arrow.bmp,None,1,800,None,0,178,178,178,,2,0,0.44352632100344636,go,0.0,0.8,1.8,010,Scanner,R,1,2019_Sep_07_1317,SST,3.0.7,60.40894767552998,
go,sst_images/Right_Arrow.bmp,None,2,721,5648.0,0,179,179,179,,2,1,0.4606932059978135,go,0.0,0.721,1.721,010,Scanner,R,1,2019_Sep_07_1317,SST,3.0.7,60.40894767552998,
