trial_type,arrow_1,corrAns,ss_delay,iti_duration,key_response.keys,key_response.corr,key_response.rt,SOA,run_fixation_duration,participant,trial_order,handedness
go,sst_images/Left_Arrow.bmp,1,0.05,1.057,1,1,0.9217967379954644,2.057,,010,sst_trial_order_11B.csv,R
go,sst_images/Right_Arrow.bmp,2,0.05,0.761,2,1,0.353934715007199,1.7610000000000001,,010,sst_trial_order_11B.csv,R
go,sst_images/Right_Arrow.bmp,2,0.05,1.025,1,0,0.32176286600588355,2.025,,010,sst_trial_order_11B.csv,R
go,sst_images/Left_Arrow.bmp,1,0.05,0.745,1,1,0.36996705799538177,1.745,,010,sst_trial_order_11B.csv,R
go,sst_images/Left_Arrow.bmp,1,0.05,1.362,1,1,0.30502788700687233,2.362,,010,sst_trial_order_11B.csv,R
go,sst_images/Right_Arrow.bmp,2,0.05,0.804,2,1,0.3880500989907887,1.804,,010,sst_trial_order_11B.csv,R
go,sst_images/Left_Arrow.bmp,1,0.05,0.821,1,1,0.3229685940023046,1.821,,010,sst_trial_order_11B.csv,R
stop,sst_images/Right_Arrow.bmp,none,0.0,1.001,2,0,0.31888593098847196,2.032114069011528,,010,sst_trial_order_11B.csv,R
go,sst_images/Right_Arrow.bmp,2,0.0,1.025,1,0,0.30594684500829317,2.025,,010,sst_trial_order_11B.csv,R
go,sst_images/Right_Arrow.bmp,2,0.0,0.832,2,1,0.4365127069904702,1.8319999999999999,,010,sst_trial_order_11B.csv,R
go,sst_images/Left_Arrow.bmp,1,0.0,0.773,1,1,0.4220221080031479,1.7730000000000001,,010,sst_trial_order_11B.csv,R
go,sst_images/Right_Arrow.bmp,2,0.0,1.479,2,1,0.3686482659977628,2.479,,010,sst_trial_order_11B.csv,R
go,sst_images/Left_Arrow.bmp,1,0.0,0.801,1,1,0.30379822399117984,1.8010000000000002,,010,sst_trial_order_11B.csv,R
go,sst_images/Left_Arrow.bmp,1,0.0,0.789,1,1,0.5519733979890589,1.7890000000000001,,010,sst_trial_order_11B.csv,R
go,sst_images/Left_Arrow.bmp,1,0.0,0.766,2,0,0.3388435450033285,1.766,,010,sst_trial_order_11B.csv,R
go,sst_images/Right_Arrow.bmp,2,0.0,0.891,2,1,0.30568506399868056,1.891,,010,sst_trial_order_11B.csv,R
go,sst_images/Left_Arrow.bmp,1,0.0,0.868,1,1,0.3707006420008838,1.8679999999999999,,010,sst_trial_order_11B.csv,R
go,sst_images/Left_Arrow.bmp,1,0.0,1.445,1,1,0.31922263899468817,2.4450000000000003,,010,sst_trial_order_11B.csv,R
go,sst_images/Right_Arrow.bmp,2,0.0,1.033,2,1,0.30328181700315326,2.033,,010,sst_trial_order_11B.csv,R
go,sst_images/Left_Arrow.bmp,1,0.0,1.103,1,1,0.2703806390054524,2.1029999999999998,,010,sst_trial_order_11B.csv,R
go,sst_images/Right_Arrow.bmp,2,0.0,0.808,2,1,0.2699163240031339,1.808,,010,sst_trial_order_11B.csv,R
go,sst_images/Left_Arrow.bmp,1,0.0,1.401,1,1,0.3044326499948511,2.401,,010,sst_trial_order_11B.csv,R
go,sst_images/Right_Arrow.bmp,2,0.0,0.834,2,1,0.28470456298964564,1.834,,010,sst_trial_order_11B.csv,R
go,sst_images/Right_Arrow.bmp,2,0.0,1.551,1,0,0.3206045489932876,2.551,,010,sst_trial_order_11B.csv,R
go,sst_images/Left_Arrow.bmp,1,0.0,0.77,1,1,0.2705139909958234,1.77,,010,sst_trial_order_11B.csv,R
stop,sst_images/Left_Arrow.bmp,none,0.0,0.801,,1,[],1.801,,010,sst_trial_order_11B.csv,R
go,sst_images/Right_Arrow.bmp,2,0.0,0.81,1,0,0.32136555000033695,1.81,,010,sst_trial_order_11B.csv,R
go,sst_images/Right_Arrow.bmp,2,0.0,0.783,1,0,0.28700390399899334,1.783,,010,sst_trial_order_11B.csv,R
go,sst_images/Left_Arrow.bmp,1,0.0,1.008,1,1,0.3860693009919487,2.008,,010,sst_trial_order_11B.csv,R
stop,sst_images/Left_Arrow.bmp,none,0.0,0.725,,1,[],1.7249999999999999,,010,sst_trial_order_11B.csv,R
go,sst_images/Right_Arrow.bmp,2,0.0,0.737,2,1,0.7053926350054098,1.737,,010,sst_trial_order_11B.csv,R
go,sst_images/Left_Arrow.bmp,1,0.0,0.826,2,0,0.3681494920019759,1.826,,010,sst_trial_order_11B.csv,R
stop,sst_images/Right_Arrow.bmp,none,0.0,0.717,,1,[],1.7169999999999999,,010,sst_trial_order_11B.csv,R
go,sst_images/Left_Arrow.bmp,1,0.0,0.812,1,1,0.28782409499399364,1.812,,010,sst_trial_order_11B.csv,R
go,sst_images/Right_Arrow.bmp,2,0.0,0.768,2,1,0.30002478799724486,1.768,,010,sst_trial_order_11B.csv,R
go,sst_images/Right_Arrow.bmp,2,0.0,0.957,1,0,0.2860036469937768,1.9569999999999999,,010,sst_trial_order_11B.csv,R
go,sst_images/Left_Arrow.bmp,1,0.0,0.812,2,0,0.32141450299241114,1.812,,010,sst_trial_order_11B.csv,R
stop,sst_images/Right_Arrow.bmp,none,0.0,0.727,,1,[],1.727,,010,sst_trial_order_11B.csv,R
go,sst_images/Left_Arrow.bmp,1,0.0,0.818,1,1,0.3369658480078215,1.818,,010,sst_trial_order_11B.csv,R
go,sst_images/Right_Arrow.bmp,2,0.0,0.746,2,1,0.2712457820016425,1.746,,010,sst_trial_order_11B.csv,R
go,sst_images/Left_Arrow.bmp,1,0.0,0.834,1,1,0.3043464030051837,1.834,,010,sst_trial_order_11B.csv,R
go,sst_images/Left_Arrow.bmp,1,0.0,1.211,1,1,0.40373285600799136,2.2110000000000003,,010,sst_trial_order_11B.csv,R
stop,sst_images/Left_Arrow.bmp,none,0.0,0.811,,1,[],1.8110000000000002,,010,sst_trial_order_11B.csv,R
go,sst_images/Right_Arrow.bmp,2,0.0,0.776,2,1,0.38805510400561616,1.776,,010,sst_trial_order_11B.csv,R
go,sst_images/Right_Arrow.bmp,2,0.0,0.962,2,1,0.45160056799068116,1.962,,010,sst_trial_order_11B.csv,R
go,sst_images/Right_Arrow.bmp,2,0.0,0.871,2,1,0.4047469889919739,1.871,,010,sst_trial_order_11B.csv,R
go,sst_images/Left_Arrow.bmp,1,0.0,0.82,1,1,0.41995048700482585,1.8199999999999998,,010,sst_trial_order_11B.csv,R
go,sst_images/Left_Arrow.bmp,1,0.0,0.706,1,1,0.30418713099788874,1.706,,010,sst_trial_order_11B.csv,R
go,sst_images/Left_Arrow.bmp,1,0.0,0.97,1,1,0.3207627509982558,1.97,,010,sst_trial_order_11B.csv,R
go,sst_images/Right_Arrow.bmp,2,0.0,1.184,2,1,0.404558141992311,2.184,,010,sst_trial_order_11B.csv,R
go,sst_images/Right_Arrow.bmp,2,0.0,0.731,2,1,0.4385965229885187,1.7309999999999999,,010,sst_trial_order_11B.csv,R
go,sst_images/Left_Arrow.bmp,1,0.0,0.715,1,1,0.30522727899369784,1.7149999999999999,,010,sst_trial_order_11B.csv,R
go,sst_images/Left_Arrow.bmp,1,0.0,0.748,1,1,0.4382058560004225,1.748,,010,sst_trial_order_11B.csv,R
stop,sst_images/Right_Arrow.bmp,none,0.0,0.808,1,0,0.3049376759881852,1.8030623240118149,,010,sst_trial_order_11B.csv,R
go,sst_images/Left_Arrow.bmp,1,0.0,0.765,1,1,0.31977044700761326,1.7650000000000001,,010,sst_trial_order_11B.csv,R
go,sst_images/Right_Arrow.bmp,2,0.0,0.871,2,1,0.42125121600111015,1.871,,010,sst_trial_order_11B.csv,R
go,sst_images/Left_Arrow.bmp,1,0.0,0.73,1,1,0.2696845739992568,1.73,,010,sst_trial_order_11B.csv,R
stop,sst_images/Right_Arrow.bmp,none,0.0,0.766,1,0,0.30390530300792307,1.762094696992077,,010,sst_trial_order_11B.csv,R
go,sst_images/Left_Arrow.bmp,1,0.0,0.839,2,0,0.32117535000725184,1.839,,010,sst_trial_order_11B.csv,R
go,sst_images/Right_Arrow.bmp,2,0.0,0.842,2,1,0.46787118300562724,1.842,,010,sst_trial_order_11B.csv,R
go,sst_images/Right_Arrow.bmp,2,0.0,0.721,2,1,0.4382601649995195,1.721,,010,sst_trial_order_11B.csv,R
stop,sst_images/Left_Arrow.bmp,none,0.0,0.746,,1,[],1.746,,010,sst_trial_order_11B.csv,R
go,sst_images/Left_Arrow.bmp,1,0.0,0.71,1,1,0.2962396869988879,1.71,,010,sst_trial_order_11B.csv,R
go,sst_images/Right_Arrow.bmp,2,0.0,0.864,2,1,0.35379017899686005,1.8639999999999999,,010,sst_trial_order_11B.csv,R
go,sst_images/Left_Arrow.bmp,1,0.0,0.804,1,1,0.2916569019871531,1.804,,010,sst_trial_order_11B.csv,R
stop,sst_images/Right_Arrow.bmp,none,0.0,1.179,,1,[],2.179,,010,sst_trial_order_11B.csv,R
go,sst_images/Right_Arrow.bmp,2,0.0,0.713,2,1,0.43740103900199756,1.713,,010,sst_trial_order_11B.csv,R
go,sst_images/Right_Arrow.bmp,2,0.0,0.842,2,1,0.4875642200058792,1.842,,010,sst_trial_order_11B.csv,R
go,sst_images/Left_Arrow.bmp,1,0.0,0.738,1,1,0.41957643600471783,1.738,,010,sst_trial_order_11B.csv,R
go,sst_images/Right_Arrow.bmp,2,0.0,0.765,2,1,0.4876362340000924,1.7650000000000001,,010,sst_trial_order_11B.csv,R
stop,sst_images/Left_Arrow.bmp,none,0.0,1.224,1,0,0.2985377050063107,2.2254622949936893,,010,sst_trial_order_11B.csv,R
go,sst_images/Left_Arrow.bmp,1,0.0,1.16,1,1,0.3514976070000557,2.16,,010,sst_trial_order_11B.csv,R
go,sst_images/Right_Arrow.bmp,2,0.0,0.715,2,1,0.33495030499761924,1.7149999999999999,,010,sst_trial_order_11B.csv,R
go,sst_images/Left_Arrow.bmp,1,0.0,1.355,1,1,0.3037722300068708,2.355,,010,sst_trial_order_11B.csv,R
go,sst_images/Right_Arrow.bmp,2,0.0,0.708,2,1,0.33850845000415575,1.708,,010,sst_trial_order_11B.csv,R
stop,sst_images/Right_Arrow.bmp,none,0.0,0.789,,1,[],1.789,,010,sst_trial_order_11B.csv,R
go,sst_images/Right_Arrow.bmp,2,0.0,0.972,1,0,0.28519385198887903,1.972,,010,sst_trial_order_11B.csv,R
go,sst_images/Left_Arrow.bmp,1,0.0,0.988,1,1,0.336211749992799,1.988,,010,sst_trial_order_11B.csv,R
go,sst_images/Left_Arrow.bmp,1,0.0,1.016,1,1,0.40342574499663897,2.016,,010,sst_trial_order_11B.csv,R
go,sst_images/Right_Arrow.bmp,2,0.0,0.817,2,1,0.32740763400215656,1.817,,010,sst_trial_order_11B.csv,R
go,sst_images/Right_Arrow.bmp,2,0.0,1.079,2,1,0.40087082599347923,2.0789999999999997,,010,sst_trial_order_11B.csv,R
stop,sst_images/Right_Arrow.bmp,none,0.0,1.042,,1,[],2.042,,010,sst_trial_order_11B.csv,R
go,sst_images/Right_Arrow.bmp,2,0.0,1.224,1,0,0.2530497809930239,2.224,,010,sst_trial_order_11B.csv,R
go,sst_images/Left_Arrow.bmp,1,0.0,1.139,1,1,0.3383903469948564,2.1390000000000002,,010,sst_trial_order_11B.csv,R
go,sst_images/Left_Arrow.bmp,1,0.0,0.83,1,1,0.38753840400022455,1.83,,010,sst_trial_order_11B.csv,R
go,sst_images/Right_Arrow.bmp,2,0.0,0.736,1,0,0.4378737599909073,1.736,,010,sst_trial_order_11B.csv,R
go,sst_images/Left_Arrow.bmp,1,0.0,0.877,2,0,0.3743967460031854,1.877,,010,sst_trial_order_11B.csv,R
go,sst_images/Right_Arrow.bmp,2,0.0,0.737,2,1,0.35526176598796155,1.737,,010,sst_trial_order_11B.csv,R
stop,sst_images/Left_Arrow.bmp,none,0.0,0.9,1,0,0.30232198399608023,1.8976780160039197,,010,sst_trial_order_11B.csv,R
go,sst_images/Left_Arrow.bmp,1,0.0,1.427,1,1,0.4118433560070116,2.427,,010,sst_trial_order_11B.csv,R
go,sst_images/Right_Arrow.bmp,2,0.0,0.807,2,1,0.3615532749972772,1.807,,010,sst_trial_order_11B.csv,R
go,sst_images/Left_Arrow.bmp,1,0.0,0.864,1,1,0.34548280500166584,1.8639999999999999,,010,sst_trial_order_11B.csv,R
go,sst_images/Left_Arrow.bmp,1,0.0,0.751,1,1,0.3932153720088536,1.751,,010,sst_trial_order_11B.csv,R
stop,sst_images/Right_Arrow.bmp,none,0.0,0.781,,1,[],1.781,,010,sst_trial_order_11B.csv,R
go,sst_images/Left_Arrow.bmp,1,0.0,0.759,1,1,0.2938224070094293,1.759,,010,sst_trial_order_11B.csv,R
go,sst_images/Right_Arrow.bmp,2,0.0,0.885,2,1,0.42500324999855366,1.885,,010,sst_trial_order_11B.csv,R
go,sst_images/Left_Arrow.bmp,1,0.0,0.941,1,1,0.25313770399952773,1.9409999999999998,,010,sst_trial_order_11B.csv,R
go,sst_images/Right_Arrow.bmp,2,0.0,1.09,1,0,0.30941836000420153,2.09,,010,sst_trial_order_11B.csv,R
go,sst_images/Right_Arrow.bmp,2,0.0,0.948,1,0,0.2601847670011921,1.948,,010,sst_trial_order_11B.csv,R
go,sst_images/Left_Arrow.bmp,1,0.0,0.856,1,1,0.36280165999778546,1.8559999999999999,,010,sst_trial_order_11B.csv,R
go,sst_images/Right_Arrow.bmp,2,0.0,0.957,2,1,0.3097981000028085,1.9569999999999999,,010,sst_trial_order_11B.csv,R
go,sst_images/Right_Arrow.bmp,2,0.0,1.1,1,0,0.30942706199130043,2.1,,010,sst_trial_order_11B.csv,R
go,sst_images/Left_Arrow.bmp,1,0.0,0.799,1,1,0.27470748200721573,1.799,,010,sst_trial_order_11B.csv,R
go,sst_images/Left_Arrow.bmp,1,0.0,0.842,2,0,0.34232329900260083,1.842,,010,sst_trial_order_11B.csv,R
stop,sst_images/Right_Arrow.bmp,none,0.0,0.904,,1,[],1.9040000000000001,,010,sst_trial_order_11B.csv,R
go,sst_images/Right_Arrow.bmp,2,0.0,0.9,2,1,0.27660626400029287,1.9,,010,sst_trial_order_11B.csv,R
go,sst_images/Right_Arrow.bmp,2,0.0,0.798,2,1,0.4078680419916054,1.798,,010,sst_trial_order_11B.csv,R
go,sst_images/Left_Arrow.bmp,1,0.0,1.028,2,0,0.3762380080006551,2.028,,010,sst_trial_order_11B.csv,R
go,sst_images/Right_Arrow.bmp,2,0.0,1.006,2,1,0.30788490299892146,2.0060000000000002,,010,sst_trial_order_11B.csv,R
go,sst_images/Left_Arrow.bmp,1,0.0,0.881,1,1,0.39180439698975533,1.881,,010,sst_trial_order_11B.csv,R
go,sst_images/Right_Arrow.bmp,2,0.0,0.774,2,1,0.41008747700834647,1.774,,010,sst_trial_order_11B.csv,R
go,sst_images/Left_Arrow.bmp,1,0.0,0.827,1,1,0.3098676599911414,1.827,,010,sst_trial_order_11B.csv,R
go,sst_images/Right_Arrow.bmp,2,0.0,0.746,2,1,0.2931466299924068,1.746,,010,sst_trial_order_11B.csv,R
stop,sst_images/Left_Arrow.bmp,none,0.0,0.768,1,0,0.2749479789927136,1.7930520210072864,,010,sst_trial_order_11B.csv,R
go,sst_images/Left_Arrow.bmp,1,0.0,0.745,1,1,0.27653636400646064,1.745,,010,sst_trial_order_11B.csv,R
go,sst_images/Right_Arrow.bmp,2,0.0,1.831,1,0,0.2904001870047068,2.831,,010,sst_trial_order_11B.csv,R
go,sst_images/Left_Arrow.bmp,1,0.0,0.981,1,1,0.33966194599634036,1.9809999999999999,,010,sst_trial_order_11B.csv,R
go,sst_images/Right_Arrow.bmp,2,0.0,0.778,2,1,0.2913439260009909,1.778,,010,sst_trial_order_11B.csv,R
go,sst_images/Left_Arrow.bmp,1,0.0,1.337,1,1,0.2758059100015089,2.3369999999999997,,010,sst_trial_order_11B.csv,R
stop,sst_images/Left_Arrow.bmp,none,0.0,0.861,,1,[],1.861,,010,sst_trial_order_11B.csv,R
go,sst_images/Right_Arrow.bmp,2,0.0,0.988,2,1,0.3751061840011971,1.988,,010,sst_trial_order_11B.csv,R
go,sst_images/Right_Arrow.bmp,2,0.0,0.757,2,1,0.40904163400409743,1.7570000000000001,,010,sst_trial_order_11B.csv,R
stop,sst_images/Right_Arrow.bmp,none,0.0,0.842,,1,[],1.8419999999999999,,010,sst_trial_order_11B.csv,R
go,sst_images/Left_Arrow.bmp,1,0.0,0.73,1,1,0.35446860500087496,1.73,,010,sst_trial_order_11B.csv,R
go,sst_images/Left_Arrow.bmp,1,0.0,0.747,1,1,0.33746886799053755,1.7469999999999999,,010,sst_trial_order_11B.csv,R
go,sst_images/Left_Arrow.bmp,1,0.0,0.948,1,1,0.2872364810027648,1.948,,010,sst_trial_order_11B.csv,R
go,sst_images/Right_Arrow.bmp,2,0.0,0.867,2,1,0.4546925800095778,1.867,,010,sst_trial_order_11B.csv,R
go,sst_images/Left_Arrow.bmp,1,0.0,0.979,1,1,0.3524483930086717,1.979,,010,sst_trial_order_11B.csv,R
stop,sst_images/Left_Arrow.bmp,none,0.0,0.812,,1,[],1.812,,010,sst_trial_order_11B.csv,R
go,sst_images/Left_Arrow.bmp,1,0.0,0.997,1,1,0.286168742008158,1.9969999999999999,,010,sst_trial_order_11B.csv,R
go,sst_images/Left_Arrow.bmp,1,0.0,0.848,1,1,0.35230337700340897,1.8479999999999999,,010,sst_trial_order_11B.csv,R
go,sst_images/Right_Arrow.bmp,2,0.0,0.818,2,1,0.37021334099699743,1.818,,010,sst_trial_order_11B.csv,R
stop,sst_images/Left_Arrow.bmp,none,0.0,0.743,1,0,0.2734779820020776,1.7695220179979223,,010,sst_trial_order_11B.csv,R
go,sst_images/Left_Arrow.bmp,1,0.0,0.965,1,1,0.9404342810012167,1.9649999999999999,,010,sst_trial_order_11B.csv,R
go,sst_images/Left_Arrow.bmp,1,0.0,0.758,1,1,0.420135462001781,1.758,,010,sst_trial_order_11B.csv,R
stop,sst_images/Right_Arrow.bmp,none,0.0,0.746,,1,[],1.746,,010,sst_trial_order_11B.csv,R
go,sst_images/Right_Arrow.bmp,2,0.0,0.811,2,1,0.33796720099053346,1.811,,010,sst_trial_order_11B.csv,R
go,sst_images/Right_Arrow.bmp,2,0.0,0.771,2,1,0.5534692630026257,1.771,,010,sst_trial_order_11B.csv,R
stop,sst_images/Left_Arrow.bmp,none,0.0,0.702,,1,[],1.702,,010,sst_trial_order_11B.csv,R
go,sst_images/Left_Arrow.bmp,1,0.0,1.05,1,1,0.3875805150019005,2.05,,010,sst_trial_order_11B.csv,R
go,sst_images/Right_Arrow.bmp,2,0.0,0.743,2,1,0.3395491480041528,1.7429999999999999,,010,sst_trial_order_11B.csv,R
go,sst_images/Left_Arrow.bmp,1,0.0,0.746,1,1,0.38794032401347067,1.746,,010,sst_trial_order_11B.csv,R
stop,sst_images/Right_Arrow.bmp,none,0.0,0.72,,1,[],1.72,,010,sst_trial_order_11B.csv,R
go,sst_images/Left_Arrow.bmp,1,0.0,0.739,1,1,0.3532958139985567,1.7389999999999999,,010,sst_trial_order_11B.csv,R
go,sst_images/Right_Arrow.bmp,2,0.0,0.93,2,1,0.35588888300117105,1.9300000000000002,,010,sst_trial_order_11B.csv,R
go,sst_images/Left_Arrow.bmp,1,0.0,1.691,1,1,0.30462086699844804,2.691,,010,sst_trial_order_11B.csv,R
go,sst_images/Right_Arrow.bmp,2,0.0,0.768,2,1,0.32147934699605685,1.768,,010,sst_trial_order_11B.csv,R
go,sst_images/Left_Arrow.bmp,1,0.0,2.0,1,1,0.3702503179956693,3.0,,010,sst_trial_order_11B.csv,R
go,sst_images/Right_Arrow.bmp,2,0.0,0.811,2,1,0.35499918699497357,1.811,,010,sst_trial_order_11B.csv,R
stop,sst_images/Right_Arrow.bmp,none,0.0,0.73,,1,[],1.73,,010,sst_trial_order_11B.csv,R
go,sst_images/Right_Arrow.bmp,2,0.0,0.729,1,0,0.38660618000722025,1.729,,010,sst_trial_order_11B.csv,R
go,sst_images/Left_Arrow.bmp,1,0.0,0.741,2,0,0.3710174590087263,1.741,,010,sst_trial_order_11B.csv,R
go,sst_images/Right_Arrow.bmp,2,0.0,0.863,1,0,0.420136836997699,1.863,,010,sst_trial_order_11B.csv,R
go,sst_images/Left_Arrow.bmp,1,0.0,0.781,1,1,0.4040574190003099,1.7810000000000001,,010,sst_trial_order_11B.csv,R
stop,sst_images/Left_Arrow.bmp,none,0.0,0.797,,1,[],1.797,,010,sst_trial_order_11B.csv,R
go,sst_images/Right_Arrow.bmp,2,0.0,0.725,1,0,0.36974411900155246,1.725,,010,sst_trial_order_11B.csv,R
go,sst_images/Left_Arrow.bmp,1,0.0,1.04,1,1,0.2874395539984107,2.04,,010,sst_trial_order_11B.csv,R
stop,sst_images/Left_Arrow.bmp,none,0.0,0.726,,1,[],1.726,,010,sst_trial_order_11B.csv,R
go,sst_images/Right_Arrow.bmp,2,0.0,0.759,1,0,0.35467770899413154,1.759,,010,sst_trial_order_11B.csv,R
go,sst_images/Left_Arrow.bmp,1,0.0,0.816,1,1,0.2702601460041478,1.8159999999999998,,010,sst_trial_order_11B.csv,R
go,sst_images/Left_Arrow.bmp,1,0.0,0.706,1,1,0.45494628499727696,1.706,,010,sst_trial_order_11B.csv,R
go,sst_images/Right_Arrow.bmp,2,0.0,0.997,2,1,0.5381477420014562,1.9969999999999999,,010,sst_trial_order_11B.csv,R
go,sst_images/Left_Arrow.bmp,1,0.0,1.279,1,1,0.3185377619956853,2.279,,010,sst_trial_order_11B.csv,R
go,sst_images/Right_Arrow.bmp,2,0.0,0.887,2,1,0.3377528499986511,1.887,,010,sst_trial_order_11B.csv,R
go,sst_images/Right_Arrow.bmp,2,0.0,0.88,1,0,0.28854996200243477,1.88,,010,sst_trial_order_11B.csv,R
go,sst_images/Right_Arrow.bmp,2,0.0,1.248,2,1,0.4032123349898029,2.248,,010,sst_trial_order_11B.csv,R
go,sst_images/Left_Arrow.bmp,1,0.0,0.863,1,1,0.4194563999917591,1.863,,010,sst_trial_order_11B.csv,R
go,sst_images/Right_Arrow.bmp,2,0.0,0.85,1,0,0.48687040599179454,1.85,,010,sst_trial_order_11B.csv,R
stop,sst_images/Left_Arrow.bmp,none,0.0,1.05,,1,[],2.05,,010,sst_trial_order_11B.csv,R
go,sst_images/Right_Arrow.bmp,2,0.0,0.967,2,1,0.454138529006741,1.967,,010,sst_trial_order_11B.csv,R
go,sst_images/Left_Arrow.bmp,1,0.0,0.924,1,1,0.35264744999585673,1.924,,010,sst_trial_order_11B.csv,R
go,sst_images/Right_Arrow.bmp,2,0.0,0.861,2,1,0.6205862920032814,1.861,,010,sst_trial_order_11B.csv,R
go,sst_images/Right_Arrow.bmp,2,0.0,0.781,2,1,0.5204652329994133,1.7810000000000001,,010,sst_trial_order_11B.csv,R
go,sst_images/Right_Arrow.bmp,2,0.0,0.74,2,1,0.417552518993034,1.74,,010,sst_trial_order_11B.csv,R
go,sst_images/Left_Arrow.bmp,1,0.0,0.727,1,1,0.383434618008323,1.7269999999999999,,010,sst_trial_order_11B.csv,R
stop,sst_images/Right_Arrow.bmp,none,0.0,0.795,2,0,0.25345332600409165,1.8415466739959083,,010,sst_trial_order_11B.csv,R
go,sst_images/Right_Arrow.bmp,2,0.0,0.813,2,1,0.4031405209971126,1.813,,010,sst_trial_order_11B.csv,R
go,sst_images/Left_Arrow.bmp,1,0.0,0.75,1,1,0.3046980619983515,1.75,,010,sst_trial_order_11B.csv,R
stop,sst_images/Left_Arrow.bmp,none,0.0,0.74,,1,[],1.74,,010,sst_trial_order_11B.csv,R
go,sst_images/Right_Arrow.bmp,2,0.0,1.094,1,0,0.3046722050057724,2.0940000000000003,,010,sst_trial_order_11B.csv,R
