trial_type,arrow_1,arrow_2,corrAns,jitter,run_end_fixation,trials.thisRepN,trials.thisTrialN,trials.thisN,trials.thisIndex,randomized TrialOrder,key_response.keys,key_response.corr,key_response.rt,trial_t.routineEndVal,ss_delay,iti_duration,SOA,participant,prac_or_scan,handedness,run,date,expName,psychopyVersion,frameRate,
go,sst_images/Left_Arrow.bmp,None,1,936,None,0,0,0,0,10,1,1,0.5726552569540218,go,0.05,0.936,1.936,012,Scanner,R,2,2019_Sep_01_1141,SST,3.0.7,60.29580507701114,
go,sst_images/Right_Arrow.bmp,None,2,708,None,0,1,1,1,,2,1,0.4220629010233097,go,0.05,0.708,1.708,012,Scanner,R,2,2019_Sep_01_1141,SST,3.0.7,60.29580507701114,
go,sst_images/Right_Arrow.bmp,None,2,728,None,0,2,2,2,,2,1,0.5703333829878829,go,0.05,0.728,1.728,012,Scanner,R,2,2019_Sep_01_1141,SST,3.0.7,60.29580507701114,
go,sst_images/Left_Arrow.bmp,None,1,940,None,0,3,3,3,,1,1,0.48971550801070407,go,0.05,0.94,1.94,012,Scanner,R,2,2019_Sep_01_1141,SST,3.0.7,60.29580507701114,
go,sst_images/Left_Arrow.bmp,None,1,778,None,0,4,4,4,,1,1,0.4047085190541111,go,0.05,0.778,1.778,012,Scanner,R,2,2019_Sep_01_1141,SST,3.0.7,60.29580507701114,
stop,sst_images/Right_Arrow.bmp,sst_images/Stop_Arrow.bmp,none,761,None,0,5,5,5,,None,1,,stop,0.1,0.761,1.7610000000000001,012,Scanner,R,2,2019_Sep_01_1141,SST,3.0.7,60.29580507701114,
go,sst_images/Right_Arrow.bmp,None,2,2000,None,0,6,6,6,,1,0,0.37112905795220286,go,0.1,2.0,3.0,012,Scanner,R,2,2019_Sep_01_1141,SST,3.0.7,60.29580507701114,
go,sst_images/Left_Arrow.bmp,None,1,746,None,0,7,7,7,,1,1,0.3360903410357423,go,0.1,0.746,1.746,012,Scanner,R,2,2019_Sep_01_1141,SST,3.0.7,60.29580507701114,
go,sst_images/Right_Arrow.bmp,None,2,1248,None,0,8,8,8,,2,1,0.4041575049632229,go,0.1,1.248,2.248,012,Scanner,R,2,2019_Sep_01_1141,SST,3.0.7,60.29580507701114,
stop,sst_images/Left_Arrow.bmp,sst_images/Stop_Arrow.bmp,none,1149,None,0,9,9,9,,None,1,,stop,0.15000000000000002,1.149,2.149,012,Scanner,R,2,2019_Sep_01_1141,SST,3.0.7,60.29580507701114,
go,sst_images/Right_Arrow.bmp,None,2,754,None,0,10,10,10,,2,1,0.45327704603550956,go,0.15000000000000002,0.754,1.754,012,Scanner,R,2,2019_Sep_01_1141,SST,3.0.7,60.29580507701114,
go,sst_images/Left_Arrow.bmp,None,1,818,None,0,11,11,11,,1,1,0.40808859397657216,go,0.15000000000000002,0.818,1.818,012,Scanner,R,2,2019_Sep_01_1141,SST,3.0.7,60.29580507701114,
go,sst_images/Right_Arrow.bmp,None,2,872,None,0,12,12,12,,2,1,0.5196098809828982,go,0.15000000000000002,0.872,1.8719999999999999,012,Scanner,R,2,2019_Sep_01_1141,SST,3.0.7,60.29580507701114,
go,sst_images/Left_Arrow.bmp,None,1,807,None,0,13,13,13,,1,1,0.5691154910018668,go,0.15000000000000002,0.807,1.807,012,Scanner,R,2,2019_Sep_01_1141,SST,3.0.7,60.29580507701114,
go,sst_images/Left_Arrow.bmp,None,1,833,None,0,14,14,14,,1,1,0.5367613920243457,go,0.15000000000000002,0.833,1.833,012,Scanner,R,2,2019_Sep_01_1141,SST,3.0.7,60.29580507701114,
go,sst_images/Left_Arrow.bmp,None,1,1296,None,0,15,15,15,,1,1,0.4679380099987611,go,0.15000000000000002,1.296,2.2960000000000003,012,Scanner,R,2,2019_Sep_01_1141,SST,3.0.7,60.29580507701114,
go,sst_images/Right_Arrow.bmp,None,2,2000,None,0,16,16,16,,2,1,0.3837825729860924,go,0.15000000000000002,2.0,3.0,012,Scanner,R,2,2019_Sep_01_1141,SST,3.0.7,60.29580507701114,
go,sst_images/Left_Arrow.bmp,None,1,1001,None,0,17,17,17,,1,1,0.4050614549778402,go,0.15000000000000002,1.001,2.001,012,Scanner,R,2,2019_Sep_01_1141,SST,3.0.7,60.29580507701114,
go,sst_images/Left_Arrow.bmp,None,1,981,None,0,18,18,18,,1,1,0.3837470230064355,go,0.15000000000000002,0.981,1.9809999999999999,012,Scanner,R,2,2019_Sep_01_1141,SST,3.0.7,60.29580507701114,
go,sst_images/Right_Arrow.bmp,None,2,1158,None,0,19,19,19,,2,1,0.5048255739966407,go,0.15000000000000002,1.158,2.158,012,Scanner,R,2,2019_Sep_01_1141,SST,3.0.7,60.29580507701114,
go,sst_images/Left_Arrow.bmp,None,1,727,None,0,20,20,20,,1,1,0.3538481119903736,go,0.15000000000000002,0.727,1.7269999999999999,012,Scanner,R,2,2019_Sep_01_1141,SST,3.0.7,60.29580507701114,
go,sst_images/Right_Arrow.bmp,None,2,748,None,0,21,21,21,,2,1,0.4543585720239207,go,0.15000000000000002,0.748,1.748,012,Scanner,R,2,2019_Sep_01_1141,SST,3.0.7,60.29580507701114,
go,sst_images/Left_Arrow.bmp,None,1,971,None,0,22,22,22,,1,1,0.5707884760340676,go,0.15000000000000002,0.971,1.971,012,Scanner,R,2,2019_Sep_01_1141,SST,3.0.7,60.29580507701114,
stop,sst_images/Left_Arrow.bmp,sst_images/Stop_Arrow.bmp,none,849,None,0,23,23,23,,None,1,,stop,0.2,0.849,1.849,012,Scanner,R,2,2019_Sep_01_1141,SST,3.0.7,60.29580507701114,
go,sst_images/Right_Arrow.bmp,None,2,883,None,0,24,24,24,,2,1,0.7211668219533749,go,0.2,0.883,1.883,012,Scanner,R,2,2019_Sep_01_1141,SST,3.0.7,60.29580507701114,
go,sst_images/Right_Arrow.bmp,None,2,924,None,0,25,25,25,,1,0,0.4885173679795116,go,0.2,0.924,1.924,012,Scanner,R,2,2019_Sep_01_1141,SST,3.0.7,60.29580507701114,
go,sst_images/Left_Arrow.bmp,None,1,825,None,0,26,26,26,,1,1,0.3695795349776745,go,0.2,0.825,1.825,012,Scanner,R,2,2019_Sep_01_1141,SST,3.0.7,60.29580507701114,
stop,sst_images/Right_Arrow.bmp,sst_images/Stop_Arrow.bmp,none,758,None,0,27,27,27,,2,0,0.43748598301317543,stop,0.15000000000000002,0.758,1.8205140169868246,012,Scanner,R,2,2019_Sep_01_1141,SST,3.0.7,60.29580507701114,
go,sst_images/Right_Arrow.bmp,None,2,781,None,0,28,28,28,,1,0,0.36978506698505953,go,0.15000000000000002,0.781,1.7810000000000001,012,Scanner,R,2,2019_Sep_01_1141,SST,3.0.7,60.29580507701114,
go,sst_images/Right_Arrow.bmp,None,2,807,None,0,29,29,29,,2,1,0.48451095301425084,go,0.15000000000000002,0.807,1.807,012,Scanner,R,2,2019_Sep_01_1141,SST,3.0.7,60.29580507701114,
go,sst_images/Left_Arrow.bmp,None,1,960,None,0,30,30,30,,1,1,0.4190851349849254,go,0.15000000000000002,0.96,1.96,012,Scanner,R,2,2019_Sep_01_1141,SST,3.0.7,60.29580507701114,
go,sst_images/Right_Arrow.bmp,None,2,712,None,0,31,31,31,,2,1,0.32105276599759236,go,0.15000000000000002,0.712,1.712,012,Scanner,R,2,2019_Sep_01_1141,SST,3.0.7,60.29580507701114,
go,sst_images/Left_Arrow.bmp,None,1,856,None,0,32,32,32,,1,1,0.31992044299840927,go,0.15000000000000002,0.856,1.8559999999999999,012,Scanner,R,2,2019_Sep_01_1141,SST,3.0.7,60.29580507701114,
stop,sst_images/Right_Arrow.bmp,sst_images/Stop_Arrow.bmp,none,1026,None,0,33,33,33,,2,0,0.3879224240081385,stop,0.10000000000000002,1.026,2.0880775759918615,012,Scanner,R,2,2019_Sep_01_1141,SST,3.0.7,60.29580507701114,
go,sst_images/Left_Arrow.bmp,None,1,702,None,0,34,34,34,,1,1,0.35063184797763824,go,0.10000000000000002,0.702,1.702,012,Scanner,R,2,2019_Sep_01_1141,SST,3.0.7,60.29580507701114,
go,sst_images/Right_Arrow.bmp,None,2,1075,None,0,35,35,35,,2,1,0.41964149300474674,go,0.10000000000000002,1.075,2.075,012,Scanner,R,2,2019_Sep_01_1141,SST,3.0.7,60.29580507701114,
go,sst_images/Right_Arrow.bmp,None,2,862,None,0,36,36,36,,1,0,0.3521599529776722,go,0.10000000000000002,0.862,1.862,012,Scanner,R,2,2019_Sep_01_1141,SST,3.0.7,60.29580507701114,
go,sst_images/Left_Arrow.bmp,None,1,865,None,0,37,37,37,,1,1,0.3364024569746107,go,0.10000000000000002,0.865,1.865,012,Scanner,R,2,2019_Sep_01_1141,SST,3.0.7,60.29580507701114,
go,sst_images/Left_Arrow.bmp,None,1,1087,None,0,38,38,38,,1,1,0.3535942239686847,go,0.10000000000000002,1.087,2.0869999999999997,012,Scanner,R,2,2019_Sep_01_1141,SST,3.0.7,60.29580507701114,
go,sst_images/Right_Arrow.bmp,None,2,841,None,0,39,39,39,,None,0,,go,0.10000000000000002,0.841,1.841,012,Scanner,R,2,2019_Sep_01_1141,SST,3.0.7,60.29580507701114,
go,sst_images/Left_Arrow.bmp,None,1,718,None,0,40,40,40,,1,1,0.25258725899038836,go,0.10000000000000002,0.718,1.718,012,Scanner,R,2,2019_Sep_01_1141,SST,3.0.7,60.29580507701114,
stop,sst_images/Left_Arrow.bmp,sst_images/Stop_Arrow.bmp,none,862,None,0,41,41,41,,1,0,0.37080697499914095,stop,0.05000000000000002,0.862,1.8911930250008593,012,Scanner,R,2,2019_Sep_01_1141,SST,3.0.7,60.29580507701114,
go,sst_images/Left_Arrow.bmp,None,1,841,None,0,42,42,42,,1,1,0.2712596780038439,go,0.05000000000000002,0.841,1.841,012,Scanner,R,2,2019_Sep_01_1141,SST,3.0.7,60.29580507701114,
go,sst_images/Right_Arrow.bmp,None,2,704,None,0,43,43,43,,1,0,0.35510954703204334,go,0.05000000000000002,0.704,1.704,012,Scanner,R,2,2019_Sep_01_1141,SST,3.0.7,60.29580507701114,
go,sst_images/Right_Arrow.bmp,None,2,702,None,0,44,44,44,,2,1,0.5865144099807367,go,0.05000000000000002,0.702,1.702,012,Scanner,R,2,2019_Sep_01_1141,SST,3.0.7,60.29580507701114,
stop,sst_images/Right_Arrow.bmp,sst_images/Stop_Arrow.bmp,none,714,None,0,45,45,45,,None,1,,stop,0.10000000000000002,0.714,1.714,012,Scanner,R,2,2019_Sep_01_1141,SST,3.0.7,60.29580507701114,
go,sst_images/Right_Arrow.bmp,None,2,730,None,0,46,46,46,,None,0,,go,0.10000000000000002,0.73,1.73,012,Scanner,R,2,2019_Sep_01_1141,SST,3.0.7,60.29580507701114,
go,sst_images/Left_Arrow.bmp,None,1,844,None,0,47,47,47,,1,1,0.5203292329679243,go,0.10000000000000002,0.844,1.8439999999999999,012,Scanner,R,2,2019_Sep_01_1141,SST,3.0.7,60.29580507701114,
stop,sst_images/Right_Arrow.bmp,sst_images/Stop_Arrow.bmp,none,719,None,0,48,48,48,,None,1,,stop,0.15000000000000002,0.719,1.719,012,Scanner,R,2,2019_Sep_01_1141,SST,3.0.7,60.29580507701114,
go,sst_images/Left_Arrow.bmp,None,1,767,None,0,49,49,49,,1,1,0.3535409939941019,go,0.15000000000000002,0.767,1.767,012,Scanner,R,2,2019_Sep_01_1141,SST,3.0.7,60.29580507701114,
go,sst_images/Left_Arrow.bmp,None,1,856,None,0,50,50,50,,1,1,0.4871396469534375,go,0.15000000000000002,0.856,1.8559999999999999,012,Scanner,R,2,2019_Sep_01_1141,SST,3.0.7,60.29580507701114,
go,sst_images/Right_Arrow.bmp,None,2,1187,None,0,51,51,51,,2,1,0.3196869380190037,go,0.15000000000000002,1.187,2.1870000000000003,012,Scanner,R,2,2019_Sep_01_1141,SST,3.0.7,60.29580507701114,
go,sst_images/Right_Arrow.bmp,None,2,702,None,0,52,52,52,,1,0,0.786414981004782,go,0.15000000000000002,0.702,1.702,012,Scanner,R,2,2019_Sep_01_1141,SST,3.0.7,60.29580507701114,
stop,sst_images/Left_Arrow.bmp,sst_images/Stop_Arrow.bmp,none,842,None,0,53,53,53,,None,1,,stop,0.2,0.842,1.8419999999999999,012,Scanner,R,2,2019_Sep_01_1141,SST,3.0.7,60.29580507701114,
go,sst_images/Left_Arrow.bmp,None,1,937,None,0,54,54,54,,1,1,0.3377624349668622,go,0.2,0.937,1.937,012,Scanner,R,2,2019_Sep_01_1141,SST,3.0.7,60.29580507701114,
go,sst_images/Left_Arrow.bmp,None,1,838,None,0,55,55,55,,2,0,0.4173294840147719,go,0.2,0.838,1.838,012,Scanner,R,2,2019_Sep_01_1141,SST,3.0.7,60.29580507701114,
go,sst_images/Left_Arrow.bmp,None,1,825,None,0,56,56,56,,1,1,0.322018445993308,go,0.2,0.825,1.825,012,Scanner,R,2,2019_Sep_01_1141,SST,3.0.7,60.29580507701114,
stop,sst_images/Right_Arrow.bmp,sst_images/Stop_Arrow.bmp,none,702,None,0,57,57,57,,1,0,0.3695750230108388,stop,0.15000000000000002,0.702,1.8324249769891612,012,Scanner,R,2,2019_Sep_01_1141,SST,3.0.7,60.29580507701114,
go,sst_images/Right_Arrow.bmp,None,2,1286,None,0,58,58,58,,2,1,0.38800579600501806,go,0.15000000000000002,1.286,2.286,012,Scanner,R,2,2019_Sep_01_1141,SST,3.0.7,60.29580507701114,
go,sst_images/Left_Arrow.bmp,None,1,758,None,0,59,59,59,,1,1,0.46973497298313305,go,0.15000000000000002,0.758,1.758,012,Scanner,R,2,2019_Sep_01_1141,SST,3.0.7,60.29580507701114,
go,sst_images/Left_Arrow.bmp,None,1,993,None,0,60,60,60,,2,0,0.33615616301540285,go,0.15000000000000002,0.993,1.9929999999999999,012,Scanner,R,2,2019_Sep_01_1141,SST,3.0.7,60.29580507701114,
stop,sst_images/Left_Arrow.bmp,sst_images/Stop_Arrow.bmp,none,1069,None,0,61,61,61,,1,0,0.25364263099618256,stop,0.10000000000000002,1.069,2.265357369003817,012,Scanner,R,2,2019_Sep_01_1141,SST,3.0.7,60.29580507701114,
go,sst_images/Right_Arrow.bmp,None,2,884,None,0,62,62,62,,2,1,0.3025496079935692,go,0.10000000000000002,0.884,1.884,012,Scanner,R,2,2019_Sep_01_1141,SST,3.0.7,60.29580507701114,
go,sst_images/Right_Arrow.bmp,None,2,711,None,0,63,63,63,,1,0,0.4691218200023286,go,0.10000000000000002,0.711,1.7109999999999999,012,Scanner,R,2,2019_Sep_01_1141,SST,3.0.7,60.29580507701114,
stop,sst_images/Right_Arrow.bmp,sst_images/Stop_Arrow.bmp,none,773,None,0,64,64,64,,None,1,,stop,0.15000000000000002,0.773,1.7730000000000001,012,Scanner,R,2,2019_Sep_01_1141,SST,3.0.7,60.29580507701114,
go,sst_images/Left_Arrow.bmp,None,1,710,None,0,65,65,65,,1,1,0.4192742829909548,go,0.15000000000000002,0.71,1.71,012,Scanner,R,2,2019_Sep_01_1141,SST,3.0.7,60.29580507701114,
go,sst_images/Right_Arrow.bmp,None,2,1035,None,0,66,66,66,,2,1,0.40318711404688656,go,0.15000000000000002,1.035,2.035,012,Scanner,R,2,2019_Sep_01_1141,SST,3.0.7,60.29580507701114,
go,sst_images/Left_Arrow.bmp,None,1,893,None,0,67,67,67,,1,1,0.33873382199089974,go,0.15000000000000002,0.893,1.893,012,Scanner,R,2,2019_Sep_01_1141,SST,3.0.7,60.29580507701114,
go,sst_images/Right_Arrow.bmp,None,2,955,None,0,68,68,68,,2,1,0.3701851809746586,go,0.15000000000000002,0.955,1.955,012,Scanner,R,2,2019_Sep_01_1141,SST,3.0.7,60.29580507701114,
go,sst_images/Right_Arrow.bmp,None,2,796,None,0,69,69,69,,2,1,0.3865368309780024,go,0.15000000000000002,0.796,1.796,012,Scanner,R,2,2019_Sep_01_1141,SST,3.0.7,60.29580507701114,
stop,sst_images/Right_Arrow.bmp,sst_images/Stop_Arrow.bmp,none,1098,None,0,70,70,70,,2,0,0.28806287702172995,stop,0.10000000000000002,1.098,2.25993712297827,012,Scanner,R,2,2019_Sep_01_1141,SST,3.0.7,60.29580507701114,
go,sst_images/Left_Arrow.bmp,None,1,841,None,0,71,71,71,,1,1,0.4314341310528107,go,0.10000000000000002,0.841,1.841,012,Scanner,R,2,2019_Sep_01_1141,SST,3.0.7,60.29580507701114,
go,sst_images/Right_Arrow.bmp,None,2,1181,None,0,72,72,72,,2,1,0.5377760899718851,go,0.10000000000000002,1.181,2.181,012,Scanner,R,2,2019_Sep_01_1141,SST,3.0.7,60.29580507701114,
go,sst_images/Left_Arrow.bmp,None,1,758,None,0,73,73,73,,1,1,0.4378372710198164,go,0.10000000000000002,0.758,1.758,012,Scanner,R,2,2019_Sep_01_1141,SST,3.0.7,60.29580507701114,
go,sst_images/Right_Arrow.bmp,None,2,843,None,0,74,74,74,,2,1,0.520320421026554,go,0.10000000000000002,0.843,1.843,012,Scanner,R,2,2019_Sep_01_1141,SST,3.0.7,60.29580507701114,
go,sst_images/Left_Arrow.bmp,None,1,882,None,0,75,75,75,,1,1,0.4543380429968238,go,0.10000000000000002,0.882,1.8820000000000001,012,Scanner,R,2,2019_Sep_01_1141,SST,3.0.7,60.29580507701114,
go,sst_images/Right_Arrow.bmp,None,2,926,None,0,76,76,76,,2,1,0.5038168960018083,go,0.10000000000000002,0.926,1.9260000000000002,012,Scanner,R,2,2019_Sep_01_1141,SST,3.0.7,60.29580507701114,
go,sst_images/Right_Arrow.bmp,None,2,816,None,0,77,77,77,,1,0,0.32060593797359616,go,0.10000000000000002,0.816,1.8159999999999998,012,Scanner,R,2,2019_Sep_01_1141,SST,3.0.7,60.29580507701114,
go,sst_images/Left_Arrow.bmp,None,1,970,None,0,78,78,78,,1,1,0.6870066849514842,go,0.10000000000000002,0.97,1.97,012,Scanner,R,2,2019_Sep_01_1141,SST,3.0.7,60.29580507701114,
go,sst_images/Left_Arrow.bmp,None,1,704,None,0,79,79,79,,1,1,0.4761447530472651,go,0.10000000000000002,0.704,1.704,012,Scanner,R,2,2019_Sep_01_1141,SST,3.0.7,60.29580507701114,
stop,sst_images/Left_Arrow.bmp,sst_images/Stop_Arrow.bmp,none,968,None,0,80,80,80,,1,0,0.33826505800243467,stop,0.05000000000000002,0.968,2.029734941997565,012,Scanner,R,2,2019_Sep_01_1141,SST,3.0.7,60.29580507701114,
go,sst_images/Right_Arrow.bmp,None,2,1416,None,0,81,81,81,,2,1,0.5748188170255162,go,0.05000000000000002,1.416,2.416,012,Scanner,R,2,2019_Sep_01_1141,SST,3.0.7,60.29580507701114,
go,sst_images/Right_Arrow.bmp,None,2,777,None,0,82,82,82,,1,0,0.3531148110050708,go,0.05000000000000002,0.777,1.7770000000000001,012,Scanner,R,2,2019_Sep_01_1141,SST,3.0.7,60.29580507701114,
go,sst_images/Right_Arrow.bmp,None,2,745,None,0,83,83,83,,2,1,0.5543248610338196,go,0.05000000000000002,0.745,1.745,012,Scanner,R,2,2019_Sep_01_1141,SST,3.0.7,60.29580507701114,
go,sst_images/Left_Arrow.bmp,None,1,820,None,0,84,84,84,,1,1,0.37701552599901333,go,0.05000000000000002,0.82,1.8199999999999998,012,Scanner,R,2,2019_Sep_01_1141,SST,3.0.7,60.29580507701114,
go,sst_images/Left_Arrow.bmp,None,1,937,None,0,85,85,85,,1,1,0.4771150670130737,go,0.05000000000000002,0.937,1.937,012,Scanner,R,2,2019_Sep_01_1141,SST,3.0.7,60.29580507701114,
stop,sst_images/Right_Arrow.bmp,sst_images/Stop_Arrow.bmp,none,885,None,0,86,86,86,,None,1,,stop,0.10000000000000002,0.885,1.885,012,Scanner,R,2,2019_Sep_01_1141,SST,3.0.7,60.29580507701114,
go,sst_images/Right_Arrow.bmp,None,2,903,None,0,87,87,87,,1,0,0.3931336530367844,go,0.10000000000000002,0.903,1.903,012,Scanner,R,2,2019_Sep_01_1141,SST,3.0.7,60.29580507701114,
go,sst_images/Left_Arrow.bmp,None,1,740,None,0,88,88,88,,1,1,0.44570568000199273,go,0.10000000000000002,0.74,1.74,012,Scanner,R,2,2019_Sep_01_1141,SST,3.0.7,60.29580507701114,
go,sst_images/Right_Arrow.bmp,None,2,793,None,0,89,89,89,,1,0,0.3854448089841753,go,0.10000000000000002,0.793,1.7930000000000001,012,Scanner,R,2,2019_Sep_01_1141,SST,3.0.7,60.29580507701114,
go,sst_images/Left_Arrow.bmp,None,1,831,None,0,90,90,90,,1,1,0.5759398689842783,go,0.10000000000000002,0.831,1.831,012,Scanner,R,2,2019_Sep_01_1141,SST,3.0.7,60.29580507701114,
stop,sst_images/Right_Arrow.bmp,sst_images/Stop_Arrow.bmp,none,873,None,0,91,91,91,,None,1,,stop,0.15000000000000002,0.873,1.873,012,Scanner,R,2,2019_Sep_01_1141,SST,3.0.7,60.29580507701114,
go,sst_images/Right_Arrow.bmp,None,2,719,None,0,92,92,92,,2,1,0.525951232004445,go,0.15000000000000002,0.719,1.7189999999999999,012,Scanner,R,2,2019_Sep_01_1141,SST,3.0.7,60.29580507701114,
go,sst_images/Left_Arrow.bmp,None,1,960,None,0,93,93,93,,1,1,0.38985084800515324,go,0.15000000000000002,0.96,1.96,012,Scanner,R,2,2019_Sep_01_1141,SST,3.0.7,60.29580507701114,
go,sst_images/Left_Arrow.bmp,None,1,819,None,0,94,94,94,,1,1,0.4561385209672153,go,0.15000000000000002,0.819,1.819,012,Scanner,R,2,2019_Sep_01_1141,SST,3.0.7,60.29580507701114,
go,sst_images/Left_Arrow.bmp,None,1,842,None,0,95,95,95,,1,1,0.4760595610132441,go,0.15000000000000002,0.842,1.842,012,Scanner,R,2,2019_Sep_01_1141,SST,3.0.7,60.29580507701114,
go,sst_images/Right_Arrow.bmp,None,2,823,None,0,96,96,96,,2,1,0.39365256699966267,go,0.15000000000000002,0.823,1.823,012,Scanner,R,2,2019_Sep_01_1141,SST,3.0.7,60.29580507701114,
go,sst_images/Left_Arrow.bmp,None,1,1149,None,0,97,97,97,,1,1,0.3696537629584782,go,0.15000000000000002,1.149,2.149,012,Scanner,R,2,2019_Sep_01_1141,SST,3.0.7,60.29580507701114,
go,sst_images/Right_Arrow.bmp,None,2,754,None,0,98,98,98,,2,1,0.35826939798425883,go,0.15000000000000002,0.754,1.754,012,Scanner,R,2,2019_Sep_01_1141,SST,3.0.7,60.29580507701114,
go,sst_images/Right_Arrow.bmp,None,2,1063,None,0,99,99,99,,1,0,0.3488589570042677,go,0.15000000000000002,1.063,2.0629999999999997,012,Scanner,R,2,2019_Sep_01_1141,SST,3.0.7,60.29580507701114,
go,sst_images/Left_Arrow.bmp,None,1,945,None,0,100,100,100,,1,1,0.44313060003332794,go,0.15000000000000002,0.945,1.9449999999999998,012,Scanner,R,2,2019_Sep_01_1141,SST,3.0.7,60.29580507701114,
go,sst_images/Right_Arrow.bmp,None,2,882,None,0,101,101,101,,2,1,0.493488494947087,go,0.15000000000000002,0.882,1.8820000000000001,012,Scanner,R,2,2019_Sep_01_1141,SST,3.0.7,60.29580507701114,
go,sst_images/Right_Arrow.bmp,None,2,806,None,0,102,102,102,,2,1,0.5424906450207345,go,0.15000000000000002,0.806,1.806,012,Scanner,R,2,2019_Sep_01_1141,SST,3.0.7,60.29580507701114,
go,sst_images/Left_Arrow.bmp,None,1,736,None,0,103,103,103,,1,1,0.5556626149918884,go,0.15000000000000002,0.736,1.736,012,Scanner,R,2,2019_Sep_01_1141,SST,3.0.7,60.29580507701114,
go,sst_images/Left_Arrow.bmp,None,1,915,None,0,104,104,104,,1,1,0.7919107490452006,go,0.15000000000000002,0.915,1.915,012,Scanner,R,2,2019_Sep_01_1141,SST,3.0.7,60.29580507701114,
go,sst_images/Right_Arrow.bmp,None,2,710,None,0,105,105,105,,2,1,0.49248613201780245,go,0.15000000000000002,0.71,1.71,012,Scanner,R,2,2019_Sep_01_1141,SST,3.0.7,60.29580507701114,
stop,sst_images/Left_Arrow.bmp,sst_images/Stop_Arrow.bmp,none,772,None,0,106,106,106,,None,1,,stop,0.2,0.772,1.772,012,Scanner,R,2,2019_Sep_01_1141,SST,3.0.7,60.29580507701114,
go,sst_images/Right_Arrow.bmp,None,2,772,None,0,107,107,107,,2,1,0.6416803080355749,go,0.2,0.772,1.772,012,Scanner,R,2,2019_Sep_01_1141,SST,3.0.7,60.29580507701114,
go,sst_images/Left_Arrow.bmp,None,1,716,None,0,108,108,108,,1,1,0.3745355259743519,go,0.2,0.716,1.716,012,Scanner,R,2,2019_Sep_01_1141,SST,3.0.7,60.29580507701114,
go,sst_images/Right_Arrow.bmp,None,2,729,None,0,109,109,109,,1,0,0.4750856939936057,go,0.2,0.729,1.729,012,Scanner,R,2,2019_Sep_01_1141,SST,3.0.7,60.29580507701114,
stop,sst_images/Left_Arrow.bmp,sst_images/Stop_Arrow.bmp,none,941,None,0,110,110,110,,None,1,,stop,0.25,0.941,1.9409999999999998,012,Scanner,R,2,2019_Sep_01_1141,SST,3.0.7,60.29580507701114,
go,sst_images/Left_Arrow.bmp,None,1,1189,None,0,111,111,111,,1,1,0.42595454305410385,go,0.25,1.189,2.189,012,Scanner,R,2,2019_Sep_01_1141,SST,3.0.7,60.29580507701114,
go,sst_images/Right_Arrow.bmp,None,2,749,None,0,112,112,112,,2,1,0.4850570780108683,go,0.25,0.749,1.749,012,Scanner,R,2,2019_Sep_01_1141,SST,3.0.7,60.29580507701114,
go,sst_images/Left_Arrow.bmp,None,1,856,None,0,113,113,113,,1,1,0.6593086059438065,go,0.25,0.856,1.8559999999999999,012,Scanner,R,2,2019_Sep_01_1141,SST,3.0.7,60.29580507701114,
go,sst_images/Right_Arrow.bmp,None,2,939,None,0,114,114,114,,2,1,0.4069352809456177,go,0.25,0.939,1.939,012,Scanner,R,2,2019_Sep_01_1141,SST,3.0.7,60.29580507701114,
go,sst_images/Left_Arrow.bmp,None,1,772,None,0,115,115,115,,None,0,,go,0.25,0.772,1.772,012,Scanner,R,2,2019_Sep_01_1141,SST,3.0.7,60.29580507701114,
go,sst_images/Right_Arrow.bmp,None,2,736,None,0,116,116,116,,2,1,0.5370484310551547,go,0.25,0.736,1.736,012,Scanner,R,2,2019_Sep_01_1141,SST,3.0.7,60.29580507701114,
go,sst_images/Left_Arrow.bmp,None,1,849,None,0,117,117,117,,1,1,0.4371637259609997,go,0.25,0.849,1.849,012,Scanner,R,2,2019_Sep_01_1141,SST,3.0.7,60.29580507701114,
stop,sst_images/Right_Arrow.bmp,sst_images/Stop_Arrow.bmp,none,950,None,0,118,118,118,,2,0,0.38601945800473914,stop,0.2,0.95,2.113980541995261,012,Scanner,R,2,2019_Sep_01_1141,SST,3.0.7,60.29580507701114,
go,sst_images/Right_Arrow.bmp,None,2,948,None,0,119,119,119,,1,0,0.3547782239620574,go,0.2,0.948,1.948,012,Scanner,R,2,2019_Sep_01_1141,SST,3.0.7,60.29580507701114,
go,sst_images/Left_Arrow.bmp,None,1,943,None,0,120,120,120,,1,1,0.5722733319853432,go,0.2,0.943,1.943,012,Scanner,R,2,2019_Sep_01_1141,SST,3.0.7,60.29580507701114,
go,sst_images/Right_Arrow.bmp,None,2,773,None,0,121,121,121,,2,1,0.535512498987373,go,0.2,0.773,1.7730000000000001,012,Scanner,R,2,2019_Sep_01_1141,SST,3.0.7,60.29580507701114,
go,sst_images/Right_Arrow.bmp,None,2,950,None,0,122,122,122,,2,1,0.5197511470178142,go,0.2,0.95,1.95,012,Scanner,R,2,2019_Sep_01_1141,SST,3.0.7,60.29580507701114,
go,sst_images/Left_Arrow.bmp,None,1,714,None,0,123,123,123,,1,1,0.6702006150153466,go,0.2,0.714,1.714,012,Scanner,R,2,2019_Sep_01_1141,SST,3.0.7,60.29580507701114,
stop,sst_images/Left_Arrow.bmp,sst_images/Stop_Arrow.bmp,none,756,None,0,124,124,124,,None,1,,stop,0.25,0.756,1.756,012,Scanner,R,2,2019_Sep_01_1141,SST,3.0.7,60.29580507701114,
go,sst_images/Left_Arrow.bmp,None,1,1478,None,0,125,125,125,,1,1,0.4910484809661284,go,0.25,1.478,2.4779999999999998,012,Scanner,R,2,2019_Sep_01_1141,SST,3.0.7,60.29580507701114,
go,sst_images/Left_Arrow.bmp,None,1,1656,None,0,126,126,126,,2,0,0.38945665198843926,go,0.25,1.656,2.6559999999999997,012,Scanner,R,2,2019_Sep_01_1141,SST,3.0.7,60.29580507701114,
go,sst_images/Right_Arrow.bmp,None,2,737,None,0,127,127,127,,2,1,0.5385832330211997,go,0.25,0.737,1.737,012,Scanner,R,2,2019_Sep_01_1141,SST,3.0.7,60.29580507701114,
go,sst_images/Left_Arrow.bmp,None,1,910,None,0,128,128,128,,1,1,0.8719160680193454,go,0.25,0.91,1.9100000000000001,012,Scanner,R,2,2019_Sep_01_1141,SST,3.0.7,60.29580507701114,
go,sst_images/Left_Arrow.bmp,None,1,1074,None,0,129,129,129,,2,0,0.40234451898140833,go,0.25,1.074,2.074,012,Scanner,R,2,2019_Sep_01_1141,SST,3.0.7,60.29580507701114,
stop,sst_images/Left_Arrow.bmp,sst_images/Stop_Arrow.bmp,none,775,None,0,130,130,130,,1,0,0.47236150997923687,stop,0.2,0.775,1.852638490020763,012,Scanner,R,2,2019_Sep_01_1141,SST,3.0.7,60.29580507701114,
go,sst_images/Left_Arrow.bmp,None,1,753,None,0,131,131,131,,1,1,0.46892513800412416,go,0.2,0.753,1.7530000000000001,012,Scanner,R,2,2019_Sep_01_1141,SST,3.0.7,60.29580507701114,
go,sst_images/Right_Arrow.bmp,None,2,1563,None,0,132,132,132,,2,1,0.7887602339615114,go,0.2,1.563,2.5629999999999997,012,Scanner,R,2,2019_Sep_01_1141,SST,3.0.7,60.29580507701114,
go,sst_images/Left_Arrow.bmp,None,1,885,None,0,133,133,133,,1,1,0.5531520200311206,go,0.2,0.885,1.885,012,Scanner,R,2,2019_Sep_01_1141,SST,3.0.7,60.29580507701114,
go,sst_images/Left_Arrow.bmp,None,1,1028,None,0,134,134,134,,2,0,0.32065412297379225,go,0.2,1.028,2.028,012,Scanner,R,2,2019_Sep_01_1141,SST,3.0.7,60.29580507701114,
stop,sst_images/Right_Arrow.bmp,sst_images/Stop_Arrow.bmp,none,940,None,0,135,135,135,,2,0,0.3221847919630818,stop,0.15000000000000002,0.94,2.117815208036918,012,Scanner,R,2,2019_Sep_01_1141,SST,3.0.7,60.29580507701114,
go,sst_images/Right_Arrow.bmp,None,2,751,None,0,136,136,136,,1,0,0.30407016701065004,go,0.15000000000000002,0.751,1.751,012,Scanner,R,2,2019_Sep_01_1141,SST,3.0.7,60.29580507701114,
go,sst_images/Right_Arrow.bmp,None,2,1148,None,0,137,137,137,,2,1,0.35372700897278264,go,0.15000000000000002,1.148,2.1479999999999997,012,Scanner,R,2,2019_Sep_01_1141,SST,3.0.7,60.29580507701114,
go,sst_images/Left_Arrow.bmp,None,1,886,None,0,138,138,138,,2,0,0.32037343503907323,go,0.15000000000000002,0.886,1.8860000000000001,012,Scanner,R,2,2019_Sep_01_1141,SST,3.0.7,60.29580507701114,
go,sst_images/Right_Arrow.bmp,None,2,780,None,0,139,139,139,,1,0,0.38659144402481616,go,0.15000000000000002,0.78,1.78,012,Scanner,R,2,2019_Sep_01_1141,SST,3.0.7,60.29580507701114,
go,sst_images/Left_Arrow.bmp,None,1,748,None,0,140,140,140,,1,1,0.3043935999739915,go,0.15000000000000002,0.748,1.748,012,Scanner,R,2,2019_Sep_01_1141,SST,3.0.7,60.29580507701114,
go,sst_images/Left_Arrow.bmp,None,1,765,None,0,141,141,141,,2,0,0.3036576519953087,go,0.15000000000000002,0.765,1.7650000000000001,012,Scanner,R,2,2019_Sep_01_1141,SST,3.0.7,60.29580507701114,
stop,sst_images/Left_Arrow.bmp,sst_images/Stop_Arrow.bmp,none,1193,None,0,142,142,142,,1,0,0.35286102700047195,stop,0.10000000000000002,1.193,2.290138972999528,012,Scanner,R,2,2019_Sep_01_1141,SST,3.0.7,60.29580507701114,
go,sst_images/Right_Arrow.bmp,None,2,941,None,0,143,143,143,,None,0,,go,0.10000000000000002,0.941,1.9409999999999998,012,Scanner,R,2,2019_Sep_01_1141,SST,3.0.7,60.29580507701114,
go,sst_images/Left_Arrow.bmp,None,1,1026,None,0,144,144,144,,1,1,0.5044255389948376,go,0.10000000000000002,1.026,2.026,012,Scanner,R,2,2019_Sep_01_1141,SST,3.0.7,60.29580507701114,
go,sst_images/Right_Arrow.bmp,None,2,786,None,0,145,145,145,,1,0,0.5043643990065902,go,0.10000000000000002,0.786,1.786,012,Scanner,R,2,2019_Sep_01_1141,SST,3.0.7,60.29580507701114,
go,sst_images/Left_Arrow.bmp,None,1,904,None,0,146,146,146,,2,0,0.5693558269995265,go,0.10000000000000002,0.904,1.904,012,Scanner,R,2,2019_Sep_01_1141,SST,3.0.7,60.29580507701114,
go,sst_images/Right_Arrow.bmp,None,2,804,None,0,147,147,147,,2,1,0.43843074003234506,go,0.10000000000000002,0.804,1.804,012,Scanner,R,2,2019_Sep_01_1141,SST,3.0.7,60.29580507701114,
go,sst_images/Right_Arrow.bmp,None,2,977,None,0,148,148,148,,2,1,0.5042738480260596,go,0.10000000000000002,0.977,1.9769999999999999,012,Scanner,R,2,2019_Sep_01_1141,SST,3.0.7,60.29580507701114,
go,sst_images/Left_Arrow.bmp,None,1,1061,None,0,149,149,149,,1,1,0.3544352899771184,go,0.10000000000000002,1.061,2.061,012,Scanner,R,2,2019_Sep_01_1141,SST,3.0.7,60.29580507701114,
stop,sst_images/Right_Arrow.bmp,sst_images/Stop_Arrow.bmp,none,993,None,0,150,150,150,,None,1,,stop,0.15000000000000002,0.993,1.993,012,Scanner,R,2,2019_Sep_01_1141,SST,3.0.7,60.29580507701114,
go,sst_images/Right_Arrow.bmp,None,2,761,None,0,151,151,151,,2,1,0.5708771289791912,go,0.15000000000000002,0.761,1.7610000000000001,012,Scanner,R,2,2019_Sep_01_1141,SST,3.0.7,60.29580507701114,
go,sst_images/Left_Arrow.bmp,None,1,759,None,0,152,152,152,,1,1,0.8380893410067074,go,0.15000000000000002,0.759,1.759,012,Scanner,R,2,2019_Sep_01_1141,SST,3.0.7,60.29580507701114,
go,sst_images/Right_Arrow.bmp,None,2,737,None,0,153,153,153,,2,1,0.41979498299770057,go,0.15000000000000002,0.737,1.737,012,Scanner,R,2,2019_Sep_01_1141,SST,3.0.7,60.29580507701114,
go,sst_images/Left_Arrow.bmp,None,1,797,None,0,154,154,154,,1,1,0.3517943329643458,go,0.15000000000000002,0.797,1.7970000000000002,012,Scanner,R,2,2019_Sep_01_1141,SST,3.0.7,60.29580507701114,
stop,sst_images/Right_Arrow.bmp,sst_images/Stop_Arrow.bmp,none,1714,None,0,155,155,155,,2,0,0.28722585301147774,stop,0.10000000000000002,1.714,2.876774146988522,012,Scanner,R,2,2019_Sep_01_1141,SST,3.0.7,60.29580507701114,
go,sst_images/Right_Arrow.bmp,None,2,776,None,0,156,156,156,,2,1,0.7674505980103277,go,0.10000000000000002,0.776,1.776,012,Scanner,R,2,2019_Sep_01_1141,SST,3.0.7,60.29580507701114,
go,sst_images/Left_Arrow.bmp,None,1,968,None,0,157,157,157,,None,0,,go,0.10000000000000002,0.968,1.968,012,Scanner,R,2,2019_Sep_01_1141,SST,3.0.7,60.29580507701114,
go,sst_images/Left_Arrow.bmp,None,1,880,None,0,158,158,158,,1,1,0.6372132240212522,go,0.10000000000000002,0.88,1.88,012,Scanner,R,2,2019_Sep_01_1141,SST,3.0.7,60.29580507701114,
go,sst_images/Right_Arrow.bmp,None,2,1006,None,0,159,159,159,,2,1,0.6545285679749213,go,0.10000000000000002,1.006,2.0060000000000002,012,Scanner,R,2,2019_Sep_01_1141,SST,3.0.7,60.29580507701114,
go,sst_images/Left_Arrow.bmp,None,1,884,None,0,160,160,160,,1,1,0.6373162299860269,go,0.10000000000000002,0.884,1.884,012,Scanner,R,2,2019_Sep_01_1141,SST,3.0.7,60.29580507701114,
stop,sst_images/Left_Arrow.bmp,sst_images/Stop_Arrow.bmp,none,778,None,0,161,161,161,,None,1,,stop,0.15000000000000002,0.778,1.7780000000000002,012,Scanner,R,2,2019_Sep_01_1141,SST,3.0.7,60.29580507701114,
go,sst_images/Right_Arrow.bmp,None,2,1047,None,0,162,162,162,,2,1,0.28659998602233827,go,0.15000000000000002,1.047,2.0469999999999997,012,Scanner,R,2,2019_Sep_01_1141,SST,3.0.7,60.29580507701114,
go,sst_images/Right_Arrow.bmp,None,2,1406,None,0,163,163,163,,1,0,0.382099922047928,go,0.15000000000000002,1.406,2.4059999999999997,012,Scanner,R,2,2019_Sep_01_1141,SST,3.0.7,60.29580507701114,
go,sst_images/Right_Arrow.bmp,None,2,928,None,0,164,164,164,,2,1,0.5026144379517063,go,0.15000000000000002,0.928,1.928,012,Scanner,R,2,2019_Sep_01_1141,SST,3.0.7,60.29580507701114,
stop,sst_images/Left_Arrow.bmp,sst_images/Stop_Arrow.bmp,none,960,None,0,165,165,165,,None,1,,stop,0.2,0.96,1.9599999999999997,012,Scanner,R,2,2019_Sep_01_1141,SST,3.0.7,60.29580507701114,
go,sst_images/Left_Arrow.bmp,None,1,820,None,0,166,166,166,,1,1,0.3203303349437192,go,0.2,0.82,1.8199999999999998,012,Scanner,R,2,2019_Sep_01_1141,SST,3.0.7,60.29580507701114,
go,sst_images/Right_Arrow.bmp,None,2,807,None,0,167,167,167,,2,1,0.32093992200680077,go,0.2,0.807,1.807,012,Scanner,R,2,2019_Sep_01_1141,SST,3.0.7,60.29580507701114,
go,sst_images/Right_Arrow.bmp,None,2,762,None,0,168,168,168,,2,1,0.36928274598903954,go,0.2,0.762,1.762,012,Scanner,R,2,2019_Sep_01_1141,SST,3.0.7,60.29580507701114,
stop,sst_images/Left_Arrow.bmp,sst_images/Stop_Arrow.bmp,none,777,None,0,169,169,169,,2,0,0.2878678919514641,stop,0.15000000000000002,0.777,1.989132108048536,012,Scanner,R,2,2019_Sep_01_1141,SST,3.0.7,60.29580507701114,
go,sst_images/Left_Arrow.bmp,None,1,1105,None,0,170,170,170,,1,1,0.3266575710149482,go,0.15000000000000002,1.105,2.105,012,Scanner,R,2,2019_Sep_01_1141,SST,3.0.7,60.29580507701114,
go,sst_images/Right_Arrow.bmp,None,2,782,None,0,171,171,171,,1,0,0.37120232201414183,go,0.15000000000000002,0.782,1.782,012,Scanner,R,2,2019_Sep_01_1141,SST,3.0.7,60.29580507701114,
go,sst_images/Right_Arrow.bmp,None,2,785,None,0,172,172,172,,2,1,0.40485350298695266,go,0.15000000000000002,0.785,1.7850000000000001,012,Scanner,R,2,2019_Sep_01_1141,SST,3.0.7,60.29580507701114,
stop,sst_images/Right_Arrow.bmp,sst_images/Stop_Arrow.bmp,none,797,None,0,173,173,173,,None,1,,stop,0.2,0.797,1.797,012,Scanner,R,2,2019_Sep_01_1141,SST,3.0.7,60.29580507701114,
go,sst_images/Right_Arrow.bmp,None,2,714,None,0,174,174,174,,None,0,,go,0.2,0.714,1.714,012,Scanner,R,2,2019_Sep_01_1141,SST,3.0.7,60.29580507701114,
go,sst_images/Left_Arrow.bmp,None,1,928,None,0,175,175,175,,2,0,0.5694012029562145,go,0.2,0.928,1.928,012,Scanner,R,2,2019_Sep_01_1141,SST,3.0.7,60.29580507701114,
go,sst_images/Right_Arrow.bmp,None,2,841,None,0,176,176,176,,None,0,,go,0.2,0.841,1.841,012,Scanner,R,2,2019_Sep_01_1141,SST,3.0.7,60.29580507701114,
stop,sst_images/Left_Arrow.bmp,sst_images/Stop_Arrow.bmp,none,963,None,0,177,177,177,,None,1,,stop,0.25,0.963,1.9629999999999999,012,Scanner,R,2,2019_Sep_01_1141,SST,3.0.7,60.29580507701114,
go,sst_images/Left_Arrow.bmp,None,1,758,None,0,178,178,178,,2,0,0.31612035498255864,go,0.25,0.758,1.758,012,Scanner,R,2,2019_Sep_01_1141,SST,3.0.7,60.29580507701114,
go,sst_images/Right_Arrow.bmp,None,2,837,4351.0,0,179,179,179,,1,0,0.20345432503381744,go,0.25,0.837,1.837,012,Scanner,R,2,2019_Sep_01_1141,SST,3.0.7,60.29580507701114,
