trial_type,arrow_1,corrAns,ss_delay,iti_duration,key_response.keys,key_response.corr,key_response.rt,SOA,run_fixation_duration,participant,trial_order,handedness
go,sst_images/Left_Arrow.bmp,1,0.05,0.936,1,1,0.5726552569540218,1.936,,012,sst_trial_order_10B.csv,R
go,sst_images/Right_Arrow.bmp,2,0.05,0.708,2,1,0.4220629010233097,1.708,,012,sst_trial_order_10B.csv,R
go,sst_images/Right_Arrow.bmp,2,0.05,0.728,2,1,0.5703333829878829,1.728,,012,sst_trial_order_10B.csv,R
go,sst_images/Left_Arrow.bmp,1,0.05,0.94,1,1,0.48971550801070407,1.94,,012,sst_trial_order_10B.csv,R
go,sst_images/Left_Arrow.bmp,1,0.05,0.778,1,1,0.4047085190541111,1.778,,012,sst_trial_order_10B.csv,R
stop,sst_images/Right_Arrow.bmp,none,0.1,0.761,,1,[],1.7610000000000001,,012,sst_trial_order_10B.csv,R
go,sst_images/Right_Arrow.bmp,2,0.1,2.0,1,0,0.37112905795220286,3.0,,012,sst_trial_order_10B.csv,R
go,sst_images/Left_Arrow.bmp,1,0.1,0.746,1,1,0.3360903410357423,1.746,,012,sst_trial_order_10B.csv,R
go,sst_images/Right_Arrow.bmp,2,0.1,1.248,2,1,0.4041575049632229,2.248,,012,sst_trial_order_10B.csv,R
stop,sst_images/Left_Arrow.bmp,none,0.15000000000000002,1.149,,1,[],2.149,,012,sst_trial_order_10B.csv,R
go,sst_images/Right_Arrow.bmp,2,0.15000000000000002,0.754,2,1,0.45327704603550956,1.754,,012,sst_trial_order_10B.csv,R
go,sst_images/Left_Arrow.bmp,1,0.15000000000000002,0.818,1,1,0.40808859397657216,1.818,,012,sst_trial_order_10B.csv,R
go,sst_images/Right_Arrow.bmp,2,0.15000000000000002,0.872,2,1,0.5196098809828982,1.8719999999999999,,012,sst_trial_order_10B.csv,R
go,sst_images/Left_Arrow.bmp,1,0.15000000000000002,0.807,1,1,0.5691154910018668,1.807,,012,sst_trial_order_10B.csv,R
go,sst_images/Left_Arrow.bmp,1,0.15000000000000002,0.833,1,1,0.5367613920243457,1.833,,012,sst_trial_order_10B.csv,R
go,sst_images/Left_Arrow.bmp,1,0.15000000000000002,1.296,1,1,0.4679380099987611,2.2960000000000003,,012,sst_trial_order_10B.csv,R
go,sst_images/Right_Arrow.bmp,2,0.15000000000000002,2.0,2,1,0.3837825729860924,3.0,,012,sst_trial_order_10B.csv,R
go,sst_images/Left_Arrow.bmp,1,0.15000000000000002,1.001,1,1,0.4050614549778402,2.001,,012,sst_trial_order_10B.csv,R
go,sst_images/Left_Arrow.bmp,1,0.15000000000000002,0.981,1,1,0.3837470230064355,1.9809999999999999,,012,sst_trial_order_10B.csv,R
go,sst_images/Right_Arrow.bmp,2,0.15000000000000002,1.158,2,1,0.5048255739966407,2.158,,012,sst_trial_order_10B.csv,R
go,sst_images/Left_Arrow.bmp,1,0.15000000000000002,0.727,1,1,0.3538481119903736,1.7269999999999999,,012,sst_trial_order_10B.csv,R
go,sst_images/Right_Arrow.bmp,2,0.15000000000000002,0.748,2,1,0.4543585720239207,1.748,,012,sst_trial_order_10B.csv,R
go,sst_images/Left_Arrow.bmp,1,0.15000000000000002,0.971,1,1,0.5707884760340676,1.971,,012,sst_trial_order_10B.csv,R
stop,sst_images/Left_Arrow.bmp,none,0.2,0.849,,1,[],1.849,,012,sst_trial_order_10B.csv,R
go,sst_images/Right_Arrow.bmp,2,0.2,0.883,2,1,0.7211668219533749,1.883,,012,sst_trial_order_10B.csv,R
go,sst_images/Right_Arrow.bmp,2,0.2,0.924,1,0,0.4885173679795116,1.924,,012,sst_trial_order_10B.csv,R
go,sst_images/Left_Arrow.bmp,1,0.2,0.825,1,1,0.3695795349776745,1.825,,012,sst_trial_order_10B.csv,R
stop,sst_images/Right_Arrow.bmp,none,0.15000000000000002,0.758,2,0,0.43748598301317543,1.8205140169868246,,012,sst_trial_order_10B.csv,R
go,sst_images/Right_Arrow.bmp,2,0.15000000000000002,0.781,1,0,0.36978506698505953,1.7810000000000001,,012,sst_trial_order_10B.csv,R
go,sst_images/Right_Arrow.bmp,2,0.15000000000000002,0.807,2,1,0.48451095301425084,1.807,,012,sst_trial_order_10B.csv,R
go,sst_images/Left_Arrow.bmp,1,0.15000000000000002,0.96,1,1,0.4190851349849254,1.96,,012,sst_trial_order_10B.csv,R
go,sst_images/Right_Arrow.bmp,2,0.15000000000000002,0.712,2,1,0.32105276599759236,1.712,,012,sst_trial_order_10B.csv,R
go,sst_images/Left_Arrow.bmp,1,0.15000000000000002,0.856,1,1,0.31992044299840927,1.8559999999999999,,012,sst_trial_order_10B.csv,R
stop,sst_images/Right_Arrow.bmp,none,0.10000000000000002,1.026,2,0,0.3879224240081385,2.0880775759918615,,012,sst_trial_order_10B.csv,R
go,sst_images/Left_Arrow.bmp,1,0.10000000000000002,0.702,1,1,0.35063184797763824,1.702,,012,sst_trial_order_10B.csv,R
go,sst_images/Right_Arrow.bmp,2,0.10000000000000002,1.075,2,1,0.41964149300474674,2.075,,012,sst_trial_order_10B.csv,R
go,sst_images/Right_Arrow.bmp,2,0.10000000000000002,0.862,1,0,0.3521599529776722,1.862,,012,sst_trial_order_10B.csv,R
go,sst_images/Left_Arrow.bmp,1,0.10000000000000002,0.865,1,1,0.3364024569746107,1.865,,012,sst_trial_order_10B.csv,R
go,sst_images/Left_Arrow.bmp,1,0.10000000000000002,1.087,1,1,0.3535942239686847,2.0869999999999997,,012,sst_trial_order_10B.csv,R
go,sst_images/Right_Arrow.bmp,2,0.10000000000000002,0.841,,0,[],1.841,,012,sst_trial_order_10B.csv,R
go,sst_images/Left_Arrow.bmp,1,0.10000000000000002,0.718,1,1,0.25258725899038836,1.718,,012,sst_trial_order_10B.csv,R
stop,sst_images/Left_Arrow.bmp,none,0.05000000000000002,0.862,1,0,0.37080697499914095,1.8911930250008593,,012,sst_trial_order_10B.csv,R
go,sst_images/Left_Arrow.bmp,1,0.05000000000000002,0.841,1,1,0.2712596780038439,1.841,,012,sst_trial_order_10B.csv,R
go,sst_images/Right_Arrow.bmp,2,0.05000000000000002,0.704,1,0,0.35510954703204334,1.704,,012,sst_trial_order_10B.csv,R
go,sst_images/Right_Arrow.bmp,2,0.05000000000000002,0.702,2,1,0.5865144099807367,1.702,,012,sst_trial_order_10B.csv,R
stop,sst_images/Right_Arrow.bmp,none,0.10000000000000002,0.714,,1,[],1.714,,012,sst_trial_order_10B.csv,R
go,sst_images/Right_Arrow.bmp,2,0.10000000000000002,0.73,,0,[],1.73,,012,sst_trial_order_10B.csv,R
go,sst_images/Left_Arrow.bmp,1,0.10000000000000002,0.844,1,1,0.5203292329679243,1.8439999999999999,,012,sst_trial_order_10B.csv,R
stop,sst_images/Right_Arrow.bmp,none,0.15000000000000002,0.719,,1,[],1.719,,012,sst_trial_order_10B.csv,R
go,sst_images/Left_Arrow.bmp,1,0.15000000000000002,0.767,1,1,0.3535409939941019,1.767,,012,sst_trial_order_10B.csv,R
go,sst_images/Left_Arrow.bmp,1,0.15000000000000002,0.856,1,1,0.4871396469534375,1.8559999999999999,,012,sst_trial_order_10B.csv,R
go,sst_images/Right_Arrow.bmp,2,0.15000000000000002,1.187,2,1,0.3196869380190037,2.1870000000000003,,012,sst_trial_order_10B.csv,R
go,sst_images/Right_Arrow.bmp,2,0.15000000000000002,0.702,1,0,0.786414981004782,1.702,,012,sst_trial_order_10B.csv,R
stop,sst_images/Left_Arrow.bmp,none,0.2,0.842,,1,[],1.8419999999999999,,012,sst_trial_order_10B.csv,R
go,sst_images/Left_Arrow.bmp,1,0.2,0.937,1,1,0.3377624349668622,1.937,,012,sst_trial_order_10B.csv,R
go,sst_images/Left_Arrow.bmp,1,0.2,0.838,2,0,0.4173294840147719,1.838,,012,sst_trial_order_10B.csv,R
go,sst_images/Left_Arrow.bmp,1,0.2,0.825,1,1,0.322018445993308,1.825,,012,sst_trial_order_10B.csv,R
stop,sst_images/Right_Arrow.bmp,none,0.15000000000000002,0.702,1,0,0.3695750230108388,1.8324249769891612,,012,sst_trial_order_10B.csv,R
go,sst_images/Right_Arrow.bmp,2,0.15000000000000002,1.286,2,1,0.38800579600501806,2.286,,012,sst_trial_order_10B.csv,R
go,sst_images/Left_Arrow.bmp,1,0.15000000000000002,0.758,1,1,0.46973497298313305,1.758,,012,sst_trial_order_10B.csv,R
go,sst_images/Left_Arrow.bmp,1,0.15000000000000002,0.993,2,0,0.33615616301540285,1.9929999999999999,,012,sst_trial_order_10B.csv,R
stop,sst_images/Left_Arrow.bmp,none,0.10000000000000002,1.069,1,0,0.25364263099618256,2.265357369003817,,012,sst_trial_order_10B.csv,R
go,sst_images/Right_Arrow.bmp,2,0.10000000000000002,0.884,2,1,0.3025496079935692,1.884,,012,sst_trial_order_10B.csv,R
go,sst_images/Right_Arrow.bmp,2,0.10000000000000002,0.711,1,0,0.4691218200023286,1.7109999999999999,,012,sst_trial_order_10B.csv,R
stop,sst_images/Right_Arrow.bmp,none,0.15000000000000002,0.773,,1,[],1.7730000000000001,,012,sst_trial_order_10B.csv,R
go,sst_images/Left_Arrow.bmp,1,0.15000000000000002,0.71,1,1,0.4192742829909548,1.71,,012,sst_trial_order_10B.csv,R
go,sst_images/Right_Arrow.bmp,2,0.15000000000000002,1.035,2,1,0.40318711404688656,2.035,,012,sst_trial_order_10B.csv,R
go,sst_images/Left_Arrow.bmp,1,0.15000000000000002,0.893,1,1,0.33873382199089974,1.893,,012,sst_trial_order_10B.csv,R
go,sst_images/Right_Arrow.bmp,2,0.15000000000000002,0.955,2,1,0.3701851809746586,1.955,,012,sst_trial_order_10B.csv,R
go,sst_images/Right_Arrow.bmp,2,0.15000000000000002,0.796,2,1,0.3865368309780024,1.796,,012,sst_trial_order_10B.csv,R
stop,sst_images/Right_Arrow.bmp,none,0.10000000000000002,1.098,2,0,0.28806287702172995,2.25993712297827,,012,sst_trial_order_10B.csv,R
go,sst_images/Left_Arrow.bmp,1,0.10000000000000002,0.841,1,1,0.4314341310528107,1.841,,012,sst_trial_order_10B.csv,R
go,sst_images/Right_Arrow.bmp,2,0.10000000000000002,1.181,2,1,0.5377760899718851,2.181,,012,sst_trial_order_10B.csv,R
go,sst_images/Left_Arrow.bmp,1,0.10000000000000002,0.758,1,1,0.4378372710198164,1.758,,012,sst_trial_order_10B.csv,R
go,sst_images/Right_Arrow.bmp,2,0.10000000000000002,0.843,2,1,0.520320421026554,1.843,,012,sst_trial_order_10B.csv,R
go,sst_images/Left_Arrow.bmp,1,0.10000000000000002,0.882,1,1,0.4543380429968238,1.8820000000000001,,012,sst_trial_order_10B.csv,R
go,sst_images/Right_Arrow.bmp,2,0.10000000000000002,0.926,2,1,0.5038168960018083,1.9260000000000002,,012,sst_trial_order_10B.csv,R
go,sst_images/Right_Arrow.bmp,2,0.10000000000000002,0.816,1,0,0.32060593797359616,1.8159999999999998,,012,sst_trial_order_10B.csv,R
go,sst_images/Left_Arrow.bmp,1,0.10000000000000002,0.97,1,1,0.6870066849514842,1.97,,012,sst_trial_order_10B.csv,R
go,sst_images/Left_Arrow.bmp,1,0.10000000000000002,0.704,1,1,0.4761447530472651,1.704,,012,sst_trial_order_10B.csv,R
stop,sst_images/Left_Arrow.bmp,none,0.05000000000000002,0.968,1,0,0.33826505800243467,2.029734941997565,,012,sst_trial_order_10B.csv,R
go,sst_images/Right_Arrow.bmp,2,0.05000000000000002,1.416,2,1,0.5748188170255162,2.416,,012,sst_trial_order_10B.csv,R
go,sst_images/Right_Arrow.bmp,2,0.05000000000000002,0.777,1,0,0.3531148110050708,1.7770000000000001,,012,sst_trial_order_10B.csv,R
go,sst_images/Right_Arrow.bmp,2,0.05000000000000002,0.745,2,1,0.5543248610338196,1.745,,012,sst_trial_order_10B.csv,R
go,sst_images/Left_Arrow.bmp,1,0.05000000000000002,0.82,1,1,0.37701552599901333,1.8199999999999998,,012,sst_trial_order_10B.csv,R
go,sst_images/Left_Arrow.bmp,1,0.05000000000000002,0.937,1,1,0.4771150670130737,1.937,,012,sst_trial_order_10B.csv,R
stop,sst_images/Right_Arrow.bmp,none,0.10000000000000002,0.885,,1,[],1.885,,012,sst_trial_order_10B.csv,R
go,sst_images/Right_Arrow.bmp,2,0.10000000000000002,0.903,1,0,0.3931336530367844,1.903,,012,sst_trial_order_10B.csv,R
go,sst_images/Left_Arrow.bmp,1,0.10000000000000002,0.74,1,1,0.44570568000199273,1.74,,012,sst_trial_order_10B.csv,R
go,sst_images/Right_Arrow.bmp,2,0.10000000000000002,0.793,1,0,0.3854448089841753,1.7930000000000001,,012,sst_trial_order_10B.csv,R
go,sst_images/Left_Arrow.bmp,1,0.10000000000000002,0.831,1,1,0.5759398689842783,1.831,,012,sst_trial_order_10B.csv,R
stop,sst_images/Right_Arrow.bmp,none,0.15000000000000002,0.873,,1,[],1.873,,012,sst_trial_order_10B.csv,R
go,sst_images/Right_Arrow.bmp,2,0.15000000000000002,0.719,2,1,0.525951232004445,1.7189999999999999,,012,sst_trial_order_10B.csv,R
go,sst_images/Left_Arrow.bmp,1,0.15000000000000002,0.96,1,1,0.38985084800515324,1.96,,012,sst_trial_order_10B.csv,R
go,sst_images/Left_Arrow.bmp,1,0.15000000000000002,0.819,1,1,0.4561385209672153,1.819,,012,sst_trial_order_10B.csv,R
go,sst_images/Left_Arrow.bmp,1,0.15000000000000002,0.842,1,1,0.4760595610132441,1.842,,012,sst_trial_order_10B.csv,R
go,sst_images/Right_Arrow.bmp,2,0.15000000000000002,0.823,2,1,0.39365256699966267,1.823,,012,sst_trial_order_10B.csv,R
go,sst_images/Left_Arrow.bmp,1,0.15000000000000002,1.149,1,1,0.3696537629584782,2.149,,012,sst_trial_order_10B.csv,R
go,sst_images/Right_Arrow.bmp,2,0.15000000000000002,0.754,2,1,0.35826939798425883,1.754,,012,sst_trial_order_10B.csv,R
go,sst_images/Right_Arrow.bmp,2,0.15000000000000002,1.063,1,0,0.3488589570042677,2.0629999999999997,,012,sst_trial_order_10B.csv,R
go,sst_images/Left_Arrow.bmp,1,0.15000000000000002,0.945,1,1,0.44313060003332794,1.9449999999999998,,012,sst_trial_order_10B.csv,R
go,sst_images/Right_Arrow.bmp,2,0.15000000000000002,0.882,2,1,0.493488494947087,1.8820000000000001,,012,sst_trial_order_10B.csv,R
go,sst_images/Right_Arrow.bmp,2,0.15000000000000002,0.806,2,1,0.5424906450207345,1.806,,012,sst_trial_order_10B.csv,R
go,sst_images/Left_Arrow.bmp,1,0.15000000000000002,0.736,1,1,0.5556626149918884,1.736,,012,sst_trial_order_10B.csv,R
go,sst_images/Left_Arrow.bmp,1,0.15000000000000002,0.915,1,1,0.7919107490452006,1.915,,012,sst_trial_order_10B.csv,R
go,sst_images/Right_Arrow.bmp,2,0.15000000000000002,0.71,2,1,0.49248613201780245,1.71,,012,sst_trial_order_10B.csv,R
stop,sst_images/Left_Arrow.bmp,none,0.2,0.772,,1,[],1.772,,012,sst_trial_order_10B.csv,R
go,sst_images/Right_Arrow.bmp,2,0.2,0.772,2,1,0.6416803080355749,1.772,,012,sst_trial_order_10B.csv,R
go,sst_images/Left_Arrow.bmp,1,0.2,0.716,1,1,0.3745355259743519,1.716,,012,sst_trial_order_10B.csv,R
go,sst_images/Right_Arrow.bmp,2,0.2,0.729,1,0,0.4750856939936057,1.729,,012,sst_trial_order_10B.csv,R
stop,sst_images/Left_Arrow.bmp,none,0.25,0.941,,1,[],1.9409999999999998,,012,sst_trial_order_10B.csv,R
go,sst_images/Left_Arrow.bmp,1,0.25,1.189,1,1,0.42595454305410385,2.189,,012,sst_trial_order_10B.csv,R
go,sst_images/Right_Arrow.bmp,2,0.25,0.749,2,1,0.4850570780108683,1.749,,012,sst_trial_order_10B.csv,R
go,sst_images/Left_Arrow.bmp,1,0.25,0.856,1,1,0.6593086059438065,1.8559999999999999,,012,sst_trial_order_10B.csv,R
go,sst_images/Right_Arrow.bmp,2,0.25,0.939,2,1,0.4069352809456177,1.939,,012,sst_trial_order_10B.csv,R
go,sst_images/Left_Arrow.bmp,1,0.25,0.772,,0,[],1.772,,012,sst_trial_order_10B.csv,R
go,sst_images/Right_Arrow.bmp,2,0.25,0.736,2,1,0.5370484310551547,1.736,,012,sst_trial_order_10B.csv,R
go,sst_images/Left_Arrow.bmp,1,0.25,0.849,1,1,0.4371637259609997,1.849,,012,sst_trial_order_10B.csv,R
stop,sst_images/Right_Arrow.bmp,none,0.2,0.95,2,0,0.38601945800473914,2.113980541995261,,012,sst_trial_order_10B.csv,R
go,sst_images/Right_Arrow.bmp,2,0.2,0.948,1,0,0.3547782239620574,1.948,,012,sst_trial_order_10B.csv,R
go,sst_images/Left_Arrow.bmp,1,0.2,0.943,1,1,0.5722733319853432,1.943,,012,sst_trial_order_10B.csv,R
go,sst_images/Right_Arrow.bmp,2,0.2,0.773,2,1,0.535512498987373,1.7730000000000001,,012,sst_trial_order_10B.csv,R
go,sst_images/Right_Arrow.bmp,2,0.2,0.95,2,1,0.5197511470178142,1.95,,012,sst_trial_order_10B.csv,R
go,sst_images/Left_Arrow.bmp,1,0.2,0.714,1,1,0.6702006150153466,1.714,,012,sst_trial_order_10B.csv,R
stop,sst_images/Left_Arrow.bmp,none,0.25,0.756,,1,[],1.756,,012,sst_trial_order_10B.csv,R
go,sst_images/Left_Arrow.bmp,1,0.25,1.478,1,1,0.4910484809661284,2.4779999999999998,,012,sst_trial_order_10B.csv,R
go,sst_images/Left_Arrow.bmp,1,0.25,1.656,2,0,0.38945665198843926,2.6559999999999997,,012,sst_trial_order_10B.csv,R
go,sst_images/Right_Arrow.bmp,2,0.25,0.737,2,1,0.5385832330211997,1.737,,012,sst_trial_order_10B.csv,R
go,sst_images/Left_Arrow.bmp,1,0.25,0.91,1,1,0.8719160680193454,1.9100000000000001,,012,sst_trial_order_10B.csv,R
go,sst_images/Left_Arrow.bmp,1,0.25,1.074,2,0,0.40234451898140833,2.074,,012,sst_trial_order_10B.csv,R
stop,sst_images/Left_Arrow.bmp,none,0.2,0.775,1,0,0.47236150997923687,1.852638490020763,,012,sst_trial_order_10B.csv,R
go,sst_images/Left_Arrow.bmp,1,0.2,0.753,1,1,0.46892513800412416,1.7530000000000001,,012,sst_trial_order_10B.csv,R
go,sst_images/Right_Arrow.bmp,2,0.2,1.563,2,1,0.7887602339615114,2.5629999999999997,,012,sst_trial_order_10B.csv,R
go,sst_images/Left_Arrow.bmp,1,0.2,0.885,1,1,0.5531520200311206,1.885,,012,sst_trial_order_10B.csv,R
go,sst_images/Left_Arrow.bmp,1,0.2,1.028,2,0,0.32065412297379225,2.028,,012,sst_trial_order_10B.csv,R
stop,sst_images/Right_Arrow.bmp,none,0.15000000000000002,0.94,2,0,0.3221847919630818,2.117815208036918,,012,sst_trial_order_10B.csv,R
go,sst_images/Right_Arrow.bmp,2,0.15000000000000002,0.751,1,0,0.30407016701065004,1.751,,012,sst_trial_order_10B.csv,R
go,sst_images/Right_Arrow.bmp,2,0.15000000000000002,1.148,2,1,0.35372700897278264,2.1479999999999997,,012,sst_trial_order_10B.csv,R
go,sst_images/Left_Arrow.bmp,1,0.15000000000000002,0.886,2,0,0.32037343503907323,1.8860000000000001,,012,sst_trial_order_10B.csv,R
go,sst_images/Right_Arrow.bmp,2,0.15000000000000002,0.78,1,0,0.38659144402481616,1.78,,012,sst_trial_order_10B.csv,R
go,sst_images/Left_Arrow.bmp,1,0.15000000000000002,0.748,1,1,0.3043935999739915,1.748,,012,sst_trial_order_10B.csv,R
go,sst_images/Left_Arrow.bmp,1,0.15000000000000002,0.765,2,0,0.3036576519953087,1.7650000000000001,,012,sst_trial_order_10B.csv,R
stop,sst_images/Left_Arrow.bmp,none,0.10000000000000002,1.193,1,0,0.35286102700047195,2.290138972999528,,012,sst_trial_order_10B.csv,R
go,sst_images/Right_Arrow.bmp,2,0.10000000000000002,0.941,,0,[],1.9409999999999998,,012,sst_trial_order_10B.csv,R
go,sst_images/Left_Arrow.bmp,1,0.10000000000000002,1.026,1,1,0.5044255389948376,2.026,,012,sst_trial_order_10B.csv,R
go,sst_images/Right_Arrow.bmp,2,0.10000000000000002,0.786,1,0,0.5043643990065902,1.786,,012,sst_trial_order_10B.csv,R
go,sst_images/Left_Arrow.bmp,1,0.10000000000000002,0.904,2,0,0.5693558269995265,1.904,,012,sst_trial_order_10B.csv,R
go,sst_images/Right_Arrow.bmp,2,0.10000000000000002,0.804,2,1,0.43843074003234506,1.804,,012,sst_trial_order_10B.csv,R
go,sst_images/Right_Arrow.bmp,2,0.10000000000000002,0.977,2,1,0.5042738480260596,1.9769999999999999,,012,sst_trial_order_10B.csv,R
go,sst_images/Left_Arrow.bmp,1,0.10000000000000002,1.061,1,1,0.3544352899771184,2.061,,012,sst_trial_order_10B.csv,R
stop,sst_images/Right_Arrow.bmp,none,0.15000000000000002,0.993,,1,[],1.993,,012,sst_trial_order_10B.csv,R
go,sst_images/Right_Arrow.bmp,2,0.15000000000000002,0.761,2,1,0.5708771289791912,1.7610000000000001,,012,sst_trial_order_10B.csv,R
go,sst_images/Left_Arrow.bmp,1,0.15000000000000002,0.759,1,1,0.8380893410067074,1.759,,012,sst_trial_order_10B.csv,R
go,sst_images/Right_Arrow.bmp,2,0.15000000000000002,0.737,2,1,0.41979498299770057,1.737,,012,sst_trial_order_10B.csv,R
go,sst_images/Left_Arrow.bmp,1,0.15000000000000002,0.797,1,1,0.3517943329643458,1.7970000000000002,,012,sst_trial_order_10B.csv,R
stop,sst_images/Right_Arrow.bmp,none,0.10000000000000002,1.714,2,0,0.28722585301147774,2.876774146988522,,012,sst_trial_order_10B.csv,R
go,sst_images/Right_Arrow.bmp,2,0.10000000000000002,0.776,2,1,0.7674505980103277,1.776,,012,sst_trial_order_10B.csv,R
go,sst_images/Left_Arrow.bmp,1,0.10000000000000002,0.968,,0,[],1.968,,012,sst_trial_order_10B.csv,R
go,sst_images/Left_Arrow.bmp,1,0.10000000000000002,0.88,1,1,0.6372132240212522,1.88,,012,sst_trial_order_10B.csv,R
go,sst_images/Right_Arrow.bmp,2,0.10000000000000002,1.006,2,1,0.6545285679749213,2.0060000000000002,,012,sst_trial_order_10B.csv,R
go,sst_images/Left_Arrow.bmp,1,0.10000000000000002,0.884,1,1,0.6373162299860269,1.884,,012,sst_trial_order_10B.csv,R
stop,sst_images/Left_Arrow.bmp,none,0.15000000000000002,0.778,,1,[],1.7780000000000002,,012,sst_trial_order_10B.csv,R
go,sst_images/Right_Arrow.bmp,2,0.15000000000000002,1.047,2,1,0.28659998602233827,2.0469999999999997,,012,sst_trial_order_10B.csv,R
go,sst_images/Right_Arrow.bmp,2,0.15000000000000002,1.406,1,0,0.382099922047928,2.4059999999999997,,012,sst_trial_order_10B.csv,R
go,sst_images/Right_Arrow.bmp,2,0.15000000000000002,0.928,2,1,0.5026144379517063,1.928,,012,sst_trial_order_10B.csv,R
stop,sst_images/Left_Arrow.bmp,none,0.2,0.96,,1,[],1.9599999999999997,,012,sst_trial_order_10B.csv,R
go,sst_images/Left_Arrow.bmp,1,0.2,0.82,1,1,0.3203303349437192,1.8199999999999998,,012,sst_trial_order_10B.csv,R
go,sst_images/Right_Arrow.bmp,2,0.2,0.807,2,1,0.32093992200680077,1.807,,012,sst_trial_order_10B.csv,R
go,sst_images/Right_Arrow.bmp,2,0.2,0.762,2,1,0.36928274598903954,1.762,,012,sst_trial_order_10B.csv,R
stop,sst_images/Left_Arrow.bmp,none,0.15000000000000002,0.777,2,0,0.2878678919514641,1.989132108048536,,012,sst_trial_order_10B.csv,R
go,sst_images/Left_Arrow.bmp,1,0.15000000000000002,1.105,1,1,0.3266575710149482,2.105,,012,sst_trial_order_10B.csv,R
go,sst_images/Right_Arrow.bmp,2,0.15000000000000002,0.782,1,0,0.37120232201414183,1.782,,012,sst_trial_order_10B.csv,R
go,sst_images/Right_Arrow.bmp,2,0.15000000000000002,0.785,2,1,0.40485350298695266,1.7850000000000001,,012,sst_trial_order_10B.csv,R
stop,sst_images/Right_Arrow.bmp,none,0.2,0.797,,1,[],1.797,,012,sst_trial_order_10B.csv,R
go,sst_images/Right_Arrow.bmp,2,0.2,0.714,,0,[],1.714,,012,sst_trial_order_10B.csv,R
go,sst_images/Left_Arrow.bmp,1,0.2,0.928,2,0,0.5694012029562145,1.928,,012,sst_trial_order_10B.csv,R
go,sst_images/Right_Arrow.bmp,2,0.2,0.841,,0,[],1.841,,012,sst_trial_order_10B.csv,R
stop,sst_images/Left_Arrow.bmp,none,0.25,0.963,,1,[],1.9629999999999999,,012,sst_trial_order_10B.csv,R
go,sst_images/Left_Arrow.bmp,1,0.25,0.758,2,0,0.31612035498255864,1.758,,012,sst_trial_order_10B.csv,R
go,sst_images/Right_Arrow.bmp,2,0.25,0.837,1,0,0.20345432503381744,1.837,,012,sst_trial_order_10B.csv,R
