trial_type,arrow_1,arrow_2,corrAns,jitter,run_end_fixation,trials.thisRepN,trials.thisTrialN,trials.thisN,trials.thisIndex,randomized TrialOrder,key_response.keys,key_response.corr,key_response.rt,trial_t.routineEndVal,ss_delay,iti_duration,SOA,participant,prac_or_scan,handedness,run,date,expName,psychopyVersion,frameRate,
go,sst_images/Left_Arrow.bmp,None,1,713,None,0,0,0,0,2,1,1,0.6015785210183822,go,0.05,0.713,1.713,013,Scanner,R,1,2019_Sep_01_1524,SST,3.0.7,60.24084010512418,
stop,sst_images/Right_Arrow.bmp,sst_images/Stop_Arrow.bmp,none,767,None,0,1,1,1,,None,1,,stop,0.1,0.767,1.767,013,Scanner,R,1,2019_Sep_01_1524,SST,3.0.7,60.24084010512418,
go,sst_images/Right_Arrow.bmp,None,2,928,None,0,2,2,2,,2,1,0.4045535509940237,go,0.1,0.928,1.928,013,Scanner,R,1,2019_Sep_01_1524,SST,3.0.7,60.24084010512418,
go,sst_images/Right_Arrow.bmp,None,2,735,None,0,3,3,3,,2,1,0.5207453179755248,go,0.1,0.735,1.7349999999999999,013,Scanner,R,1,2019_Sep_01_1524,SST,3.0.7,60.24084010512418,
go,sst_images/Left_Arrow.bmp,None,1,1380,None,0,4,4,4,,1,1,0.43446968600619584,go,0.1,1.38,2.38,013,Scanner,R,1,2019_Sep_01_1524,SST,3.0.7,60.24084010512418,
go,sst_images/Left_Arrow.bmp,None,1,769,None,0,5,5,5,,1,1,0.4198111640289426,go,0.1,0.769,1.7690000000000001,013,Scanner,R,1,2019_Sep_01_1524,SST,3.0.7,60.24084010512418,
stop,sst_images/Left_Arrow.bmp,sst_images/Stop_Arrow.bmp,none,884,None,0,6,6,6,,None,1,,stop,0.15000000000000002,0.884,1.8840000000000001,013,Scanner,R,1,2019_Sep_01_1524,SST,3.0.7,60.24084010512418,
go,sst_images/Right_Arrow.bmp,None,2,732,None,0,7,7,7,,2,1,0.33617079502437264,go,0.15000000000000002,0.732,1.732,013,Scanner,R,1,2019_Sep_01_1524,SST,3.0.7,60.24084010512418,
go,sst_images/Left_Arrow.bmp,None,1,847,None,0,8,8,8,,1,1,0.3708388000377454,go,0.15000000000000002,0.847,1.847,013,Scanner,R,1,2019_Sep_01_1524,SST,3.0.7,60.24084010512418,
stop,sst_images/Left_Arrow.bmp,sst_images/Stop_Arrow.bmp,none,1278,None,0,9,9,9,,1,0,0.43839947902597487,stop,0.10000000000000002,1.278,2.289600520974025,013,Scanner,R,1,2019_Sep_01_1524,SST,3.0.7,60.24084010512418,
go,sst_images/Right_Arrow.bmp,None,2,701,None,0,10,10,10,,2,1,0.3215258880518377,go,0.10000000000000002,0.701,1.701,013,Scanner,R,1,2019_Sep_01_1524,SST,3.0.7,60.24084010512418,
go,sst_images/Right_Arrow.bmp,None,2,1480,None,0,11,11,11,,1,0,0.3740117690176703,go,0.10000000000000002,1.48,2.48,013,Scanner,R,1,2019_Sep_01_1524,SST,3.0.7,60.24084010512418,
go,sst_images/Left_Arrow.bmp,None,1,935,None,0,12,12,12,,1,1,0.35274199896957725,go,0.10000000000000002,0.935,1.935,013,Scanner,R,1,2019_Sep_01_1524,SST,3.0.7,60.24084010512418,
go,sst_images/Right_Arrow.bmp,None,2,1533,None,0,13,13,13,,2,1,0.3221060580108315,go,0.10000000000000002,1.533,2.533,013,Scanner,R,1,2019_Sep_01_1524,SST,3.0.7,60.24084010512418,
go,sst_images/Left_Arrow.bmp,None,1,747,None,0,14,14,14,,1,1,0.3057600829633884,go,0.10000000000000002,0.747,1.7469999999999999,013,Scanner,R,1,2019_Sep_01_1524,SST,3.0.7,60.24084010512418,
go,sst_images/Left_Arrow.bmp,None,1,1758,None,0,15,15,15,,2,0,0.3034786470234394,go,0.10000000000000002,1.758,2.758,013,Scanner,R,1,2019_Sep_01_1524,SST,3.0.7,60.24084010512418,
go,sst_images/Left_Arrow.bmp,None,1,818,None,0,16,16,16,,2,0,0.30315531603991985,go,0.10000000000000002,0.818,1.818,013,Scanner,R,1,2019_Sep_01_1524,SST,3.0.7,60.24084010512418,
go,sst_images/Right_Arrow.bmp,None,2,833,None,0,17,17,17,,2,1,0.43038696295116097,go,0.10000000000000002,0.833,1.833,013,Scanner,R,1,2019_Sep_01_1524,SST,3.0.7,60.24084010512418,
stop,sst_images/Right_Arrow.bmp,sst_images/Stop_Arrow.bmp,none,1248,None,0,18,18,18,,None,1,,stop,0.15000000000000002,1.248,2.2479999999999998,013,Scanner,R,1,2019_Sep_01_1524,SST,3.0.7,60.24084010512418,
go,sst_images/Left_Arrow.bmp,None,1,1081,None,0,19,19,19,,1,1,0.3376783159910701,go,0.15000000000000002,1.081,2.081,013,Scanner,R,1,2019_Sep_01_1524,SST,3.0.7,60.24084010512418,
go,sst_images/Left_Arrow.bmp,None,1,872,None,0,20,20,20,,1,1,0.33771760598756373,go,0.15000000000000002,0.872,1.8719999999999999,013,Scanner,R,1,2019_Sep_01_1524,SST,3.0.7,60.24084010512418,
go,sst_images/Right_Arrow.bmp,None,2,820,None,0,21,21,21,,2,1,0.47024299297481775,go,0.15000000000000002,0.82,1.8199999999999998,013,Scanner,R,1,2019_Sep_01_1524,SST,3.0.7,60.24084010512418,
go,sst_images/Left_Arrow.bmp,None,1,702,None,0,22,22,22,,1,1,0.35329247498884797,go,0.15000000000000002,0.702,1.702,013,Scanner,R,1,2019_Sep_01_1524,SST,3.0.7,60.24084010512418,
go,sst_images/Right_Arrow.bmp,None,2,833,None,0,23,23,23,,2,1,0.33741265803109854,go,0.15000000000000002,0.833,1.833,013,Scanner,R,1,2019_Sep_01_1524,SST,3.0.7,60.24084010512418,
go,sst_images/Left_Arrow.bmp,None,1,795,None,0,24,24,24,,1,1,0.28683852701215073,go,0.15000000000000002,0.795,1.795,013,Scanner,R,1,2019_Sep_01_1524,SST,3.0.7,60.24084010512418,
go,sst_images/Right_Arrow.bmp,None,2,846,None,0,25,25,25,,2,1,0.38606776599772274,go,0.15000000000000002,0.846,1.846,013,Scanner,R,1,2019_Sep_01_1524,SST,3.0.7,60.24084010512418,
go,sst_images/Right_Arrow.bmp,None,2,707,None,0,26,26,26,,2,1,0.487530971004162,go,0.15000000000000002,0.707,1.7069999999999999,013,Scanner,R,1,2019_Sep_01_1524,SST,3.0.7,60.24084010512418,
go,sst_images/Left_Arrow.bmp,None,1,811,None,0,27,27,27,,1,1,0.4361078630317934,go,0.15000000000000002,0.811,1.811,013,Scanner,R,1,2019_Sep_01_1524,SST,3.0.7,60.24084010512418,
stop,sst_images/Right_Arrow.bmp,sst_images/Stop_Arrow.bmp,none,1022,None,0,28,28,28,,2,0,0.40414153499295935,stop,0.10000000000000002,1.022,2.0678584650070406,013,Scanner,R,1,2019_Sep_01_1524,SST,3.0.7,60.24084010512418,
go,sst_images/Right_Arrow.bmp,None,2,804,None,0,29,29,29,,2,1,0.5020426270202734,go,0.10000000000000002,0.804,1.804,013,Scanner,R,1,2019_Sep_01_1524,SST,3.0.7,60.24084010512418,
go,sst_images/Right_Arrow.bmp,None,2,741,None,0,30,30,30,,2,1,0.46280667604878545,go,0.10000000000000002,0.741,1.741,013,Scanner,R,1,2019_Sep_01_1524,SST,3.0.7,60.24084010512418,
go,sst_images/Left_Arrow.bmp,None,1,889,None,0,31,31,31,,1,1,0.32911276299273595,go,0.10000000000000002,0.889,1.889,013,Scanner,R,1,2019_Sep_01_1524,SST,3.0.7,60.24084010512418,
stop,sst_images/Left_Arrow.bmp,sst_images/Stop_Arrow.bmp,none,765,None,0,32,32,32,,None,1,,stop,0.15000000000000002,0.765,1.7650000000000001,013,Scanner,R,1,2019_Sep_01_1524,SST,3.0.7,60.24084010512418,
go,sst_images/Right_Arrow.bmp,None,2,1191,None,0,33,33,33,,2,1,0.33587932999944314,go,0.15000000000000002,1.191,2.191,013,Scanner,R,1,2019_Sep_01_1524,SST,3.0.7,60.24084010512418,
go,sst_images/Left_Arrow.bmp,None,1,1158,None,0,34,34,34,,1,1,0.3621731659513898,go,0.15000000000000002,1.158,2.158,013,Scanner,R,1,2019_Sep_01_1524,SST,3.0.7,60.24084010512418,
stop,sst_images/Right_Arrow.bmp,sst_images/Stop_Arrow.bmp,none,847,None,0,35,35,35,,2,0,0.35457027796655893,stop,0.10000000000000002,0.847,1.942429722033441,013,Scanner,R,1,2019_Sep_01_1524,SST,3.0.7,60.24084010512418,
go,sst_images/Left_Arrow.bmp,None,1,1121,None,0,36,36,36,,1,1,0.3951121930149384,go,0.10000000000000002,1.121,2.121,013,Scanner,R,1,2019_Sep_01_1524,SST,3.0.7,60.24084010512418,
stop,sst_images/Right_Arrow.bmp,sst_images/Stop_Arrow.bmp,none,1008,None,0,37,37,37,,2,0,0.30447628401452675,stop,0.05000000000000002,1.008,2.103523715985473,013,Scanner,R,1,2019_Sep_01_1524,SST,3.0.7,60.24084010512418,
go,sst_images/Right_Arrow.bmp,None,2,728,None,0,38,38,38,,1,0,0.3375175839755684,go,0.05000000000000002,0.728,1.728,013,Scanner,R,1,2019_Sep_01_1524,SST,3.0.7,60.24084010512418,
go,sst_images/Right_Arrow.bmp,None,2,812,None,0,39,39,39,,2,1,0.3955088409711607,go,0.05000000000000002,0.812,1.812,013,Scanner,R,1,2019_Sep_01_1524,SST,3.0.7,60.24084010512418,
go,sst_images/Left_Arrow.bmp,None,1,836,None,0,40,40,40,,1,1,0.43787194800097495,go,0.05000000000000002,0.836,1.8359999999999999,013,Scanner,R,1,2019_Sep_01_1524,SST,3.0.7,60.24084010512418,
go,sst_images/Left_Arrow.bmp,None,1,894,None,0,41,41,41,,1,1,0.4346033380134031,go,0.05000000000000002,0.894,1.8940000000000001,013,Scanner,R,1,2019_Sep_01_1524,SST,3.0.7,60.24084010512418,
stop,sst_images/Left_Arrow.bmp,sst_images/Stop_Arrow.bmp,none,714,None,0,42,42,42,,None,1,,stop,0.10000000000000002,0.714,1.714,013,Scanner,R,1,2019_Sep_01_1524,SST,3.0.7,60.24084010512418,
go,sst_images/Right_Arrow.bmp,None,2,719,None,0,43,43,43,,2,1,0.31092432199511677,go,0.10000000000000002,0.719,1.7189999999999999,013,Scanner,R,1,2019_Sep_01_1524,SST,3.0.7,60.24084010512418,
go,sst_images/Left_Arrow.bmp,None,1,707,None,0,44,44,44,,1,1,0.40476310200756416,go,0.10000000000000002,0.707,1.7069999999999999,013,Scanner,R,1,2019_Sep_01_1524,SST,3.0.7,60.24084010512418,
go,sst_images/Left_Arrow.bmp,None,1,787,None,0,45,45,45,,2,0,0.38690721098100767,go,0.10000000000000002,0.787,1.787,013,Scanner,R,1,2019_Sep_01_1524,SST,3.0.7,60.24084010512418,
stop,sst_images/Right_Arrow.bmp,sst_images/Stop_Arrow.bmp,none,767,None,0,46,46,46,,2,0,0.34250475699082017,stop,0.05000000000000002,0.767,1.8244952430091799,013,Scanner,R,1,2019_Sep_01_1524,SST,3.0.7,60.24084010512418,
go,sst_images/Right_Arrow.bmp,None,2,783,None,0,47,47,47,,1,0,0.3291883770143613,go,0.05000000000000002,0.783,1.783,013,Scanner,R,1,2019_Sep_01_1524,SST,3.0.7,60.24084010512418,
go,sst_images/Right_Arrow.bmp,None,2,743,None,0,48,48,48,,2,1,0.3415205369819887,go,0.05000000000000002,0.743,1.7429999999999999,013,Scanner,R,1,2019_Sep_01_1524,SST,3.0.7,60.24084010512418,
go,sst_images/Right_Arrow.bmp,None,2,752,None,0,49,49,49,,2,1,0.34354672295739874,go,0.05000000000000002,0.752,1.752,013,Scanner,R,1,2019_Sep_01_1524,SST,3.0.7,60.24084010512418,
stop,sst_images/Left_Arrow.bmp,sst_images/Stop_Arrow.bmp,none,1219,None,0,50,50,50,,None,1,,stop,0.10000000000000002,1.219,2.219,013,Scanner,R,1,2019_Sep_01_1524,SST,3.0.7,60.24084010512418,
go,sst_images/Left_Arrow.bmp,None,1,1510,None,0,51,51,51,,1,1,0.3432543799863197,go,0.10000000000000002,1.51,2.51,013,Scanner,R,1,2019_Sep_01_1524,SST,3.0.7,60.24084010512418,
go,sst_images/Left_Arrow.bmp,None,1,1441,None,0,52,52,52,,2,0,0.3440919650020078,go,0.10000000000000002,1.441,2.441,013,Scanner,R,1,2019_Sep_01_1524,SST,3.0.7,60.24084010512418,
go,sst_images/Left_Arrow.bmp,None,1,774,None,0,53,53,53,,1,1,0.4617053649853915,go,0.10000000000000002,0.774,1.774,013,Scanner,R,1,2019_Sep_01_1524,SST,3.0.7,60.24084010512418,
go,sst_images/Right_Arrow.bmp,None,2,1033,None,0,54,54,54,,2,1,0.40511878399411216,go,0.10000000000000002,1.033,2.033,013,Scanner,R,1,2019_Sep_01_1524,SST,3.0.7,60.24084010512418,
stop,sst_images/Right_Arrow.bmp,sst_images/Stop_Arrow.bmp,none,868,None,0,55,55,55,,None,1,,stop,0.15000000000000002,0.868,1.868,013,Scanner,R,1,2019_Sep_01_1524,SST,3.0.7,60.24084010512418,
go,sst_images/Right_Arrow.bmp,None,2,836,None,0,56,56,56,,2,1,0.47388212400255725,go,0.15000000000000002,0.836,1.8359999999999999,013,Scanner,R,1,2019_Sep_01_1524,SST,3.0.7,60.24084010512418,
go,sst_images/Left_Arrow.bmp,None,1,713,None,0,57,57,57,,1,1,0.3436463000252843,go,0.15000000000000002,0.713,1.713,013,Scanner,R,1,2019_Sep_01_1524,SST,3.0.7,60.24084010512418,
go,sst_images/Left_Arrow.bmp,None,1,707,None,0,58,58,58,,1,1,0.4594956160290167,go,0.15000000000000002,0.707,1.7069999999999999,013,Scanner,R,1,2019_Sep_01_1524,SST,3.0.7,60.24084010512418,
go,sst_images/Left_Arrow.bmp,None,1,878,None,0,59,59,59,,1,1,0.5376265249797143,go,0.15000000000000002,0.878,1.8780000000000001,013,Scanner,R,1,2019_Sep_01_1524,SST,3.0.7,60.24084010512418,
go,sst_images/Right_Arrow.bmp,None,2,851,None,0,60,60,60,,2,1,0.5042436659568921,go,0.15000000000000002,0.851,1.851,013,Scanner,R,1,2019_Sep_01_1524,SST,3.0.7,60.24084010512418,
go,sst_images/Left_Arrow.bmp,None,1,1008,None,0,61,61,61,,1,1,0.41956044000107795,go,0.15000000000000002,1.008,2.008,013,Scanner,R,1,2019_Sep_01_1524,SST,3.0.7,60.24084010512418,
go,sst_images/Left_Arrow.bmp,None,1,1763,None,0,62,62,62,,1,1,0.47417320701060817,go,0.15000000000000002,1.763,2.763,013,Scanner,R,1,2019_Sep_01_1524,SST,3.0.7,60.24084010512418,
go,sst_images/Right_Arrow.bmp,None,2,714,None,0,63,63,63,,2,1,0.42584900703513995,go,0.15000000000000002,0.714,1.714,013,Scanner,R,1,2019_Sep_01_1524,SST,3.0.7,60.24084010512418,
go,sst_images/Right_Arrow.bmp,None,2,1009,None,0,64,64,64,,2,1,0.46407114900648594,go,0.15000000000000002,1.009,2.009,013,Scanner,R,1,2019_Sep_01_1524,SST,3.0.7,60.24084010512418,
go,sst_images/Left_Arrow.bmp,None,1,1274,None,0,65,65,65,,1,1,0.35921496601076797,go,0.15000000000000002,1.274,2.274,013,Scanner,R,1,2019_Sep_01_1524,SST,3.0.7,60.24084010512418,
stop,sst_images/Right_Arrow.bmp,sst_images/Stop_Arrow.bmp,none,787,None,0,66,66,66,,2,0,0.41022999299457297,stop,0.10000000000000002,0.787,1.826770007005427,013,Scanner,R,1,2019_Sep_01_1524,SST,3.0.7,60.24084010512418,
go,sst_images/Right_Arrow.bmp,None,2,1357,None,0,67,67,67,,2,1,0.4568289099843241,go,0.10000000000000002,1.357,2.357,013,Scanner,R,1,2019_Sep_01_1524,SST,3.0.7,60.24084010512418,
go,sst_images/Left_Arrow.bmp,None,1,707,None,0,68,68,68,,1,1,0.40861490898532793,go,0.10000000000000002,0.707,1.7069999999999999,013,Scanner,R,1,2019_Sep_01_1524,SST,3.0.7,60.24084010512418,
go,sst_images/Right_Arrow.bmp,None,2,735,None,0,69,69,69,,2,1,0.39051012601703405,go,0.10000000000000002,0.735,1.7349999999999999,013,Scanner,R,1,2019_Sep_01_1524,SST,3.0.7,60.24084010512418,
stop,sst_images/Left_Arrow.bmp,sst_images/Stop_Arrow.bmp,none,707,None,0,70,70,70,,None,1,,stop,0.15000000000000002,0.707,1.707,013,Scanner,R,1,2019_Sep_01_1524,SST,3.0.7,60.24084010512418,
go,sst_images/Right_Arrow.bmp,None,2,796,None,0,71,71,71,,2,1,0.4215148119837977,go,0.15000000000000002,0.796,1.796,013,Scanner,R,1,2019_Sep_01_1524,SST,3.0.7,60.24084010512418,
go,sst_images/Left_Arrow.bmp,None,1,798,None,0,72,72,72,,1,1,0.45608258101856336,go,0.15000000000000002,0.798,1.798,013,Scanner,R,1,2019_Sep_01_1524,SST,3.0.7,60.24084010512418,
go,sst_images/Right_Arrow.bmp,None,2,705,None,0,73,73,73,,2,1,0.5000640130019747,go,0.15000000000000002,0.705,1.705,013,Scanner,R,1,2019_Sep_01_1524,SST,3.0.7,60.24084010512418,
go,sst_images/Left_Arrow.bmp,None,1,802,None,0,74,74,74,,1,1,0.3742902710218914,go,0.15000000000000002,0.802,1.802,013,Scanner,R,1,2019_Sep_01_1524,SST,3.0.7,60.24084010512418,
stop,sst_images/Right_Arrow.bmp,sst_images/Stop_Arrow.bmp,none,1871,None,0,75,75,75,,2,0,0.35451674298383296,stop,0.10000000000000002,1.871,2.9664832570161668,013,Scanner,R,1,2019_Sep_01_1524,SST,3.0.7,60.24084010512418,
go,sst_images/Right_Arrow.bmp,None,2,912,None,0,76,76,76,,1,0,0.33825602201977745,go,0.10000000000000002,0.912,1.912,013,Scanner,R,1,2019_Sep_01_1524,SST,3.0.7,60.24084010512418,
go,sst_images/Left_Arrow.bmp,None,1,752,None,0,77,77,77,,1,1,0.4743882940383628,go,0.10000000000000002,0.752,1.752,013,Scanner,R,1,2019_Sep_01_1524,SST,3.0.7,60.24084010512418,
go,sst_images/Right_Arrow.bmp,None,2,868,None,0,78,78,78,,2,1,0.4709149789996445,go,0.10000000000000002,0.868,1.8679999999999999,013,Scanner,R,1,2019_Sep_01_1524,SST,3.0.7,60.24084010512418,
stop,sst_images/Right_Arrow.bmp,sst_images/Stop_Arrow.bmp,none,719,None,0,79,79,79,,2,0,0.4036287060007453,stop,0.05000000000000002,0.719,1.7153712939992547,013,Scanner,R,1,2019_Sep_01_1524,SST,3.0.7,60.24084010512418,
go,sst_images/Right_Arrow.bmp,None,2,789,None,0,80,80,80,,1,0,0.38622474001022056,go,0.05000000000000002,0.789,1.7890000000000001,013,Scanner,R,1,2019_Sep_01_1524,SST,3.0.7,60.24084010512418,
go,sst_images/Left_Arrow.bmp,None,1,745,None,0,81,81,81,,1,1,0.37144967599306256,go,0.05000000000000002,0.745,1.745,013,Scanner,R,1,2019_Sep_01_1524,SST,3.0.7,60.24084010512418,
go,sst_images/Left_Arrow.bmp,None,1,796,None,0,82,82,82,,1,1,0.47093732602661476,go,0.05000000000000002,0.796,1.796,013,Scanner,R,1,2019_Sep_01_1524,SST,3.0.7,60.24084010512418,
go,sst_images/Right_Arrow.bmp,None,2,1025,None,0,83,83,83,,2,1,0.35316851700190455,go,0.05000000000000002,1.025,2.025,013,Scanner,R,1,2019_Sep_01_1524,SST,3.0.7,60.24084010512418,
stop,sst_images/Left_Arrow.bmp,sst_images/Stop_Arrow.bmp,none,737,None,0,84,84,84,,1,0,0.3376037999987602,stop,1.3877787807814457e-17,0.737,1.74939620000124,013,Scanner,R,1,2019_Sep_01_1524,SST,3.0.7,60.24084010512418,
go,sst_images/Right_Arrow.bmp,None,2,915,None,0,85,85,85,,2,1,0.3244110679952428,go,1.3877787807814457e-17,0.915,1.915,013,Scanner,R,1,2019_Sep_01_1524,SST,3.0.7,60.24084010512418,
go,sst_images/Right_Arrow.bmp,None,2,882,None,0,86,86,86,,2,1,0.45413799199741334,go,1.3877787807814457e-17,0.882,1.8820000000000001,013,Scanner,R,1,2019_Sep_01_1524,SST,3.0.7,60.24084010512418,
go,sst_images/Left_Arrow.bmp,None,1,704,None,0,87,87,87,,1,1,0.42444612202234566,go,1.3877787807814457e-17,0.704,1.704,013,Scanner,R,1,2019_Sep_01_1524,SST,3.0.7,60.24084010512418,
stop,sst_images/Left_Arrow.bmp,sst_images/Stop_Arrow.bmp,none,707,None,0,88,88,88,,None,1,,stop,0.05000000000000002,0.707,1.707,013,Scanner,R,1,2019_Sep_01_1524,SST,3.0.7,60.24084010512418,
go,sst_images/Left_Arrow.bmp,None,1,1357,None,0,89,89,89,,1,1,0.4395292970002629,go,0.05000000000000002,1.357,2.357,013,Scanner,R,1,2019_Sep_01_1524,SST,3.0.7,60.24084010512418,
go,sst_images/Right_Arrow.bmp,None,2,740,None,0,90,90,90,,2,1,0.37254619295708835,go,0.05000000000000002,0.74,1.74,013,Scanner,R,1,2019_Sep_01_1524,SST,3.0.7,60.24084010512418,
go,sst_images/Left_Arrow.bmp,None,1,1198,None,0,91,91,91,,1,1,0.45358798501547426,go,0.05000000000000002,1.198,2.198,013,Scanner,R,1,2019_Sep_01_1524,SST,3.0.7,60.24084010512418,
go,sst_images/Right_Arrow.bmp,None,2,1899,None,0,92,92,92,,2,1,0.3059717299765907,go,0.05000000000000002,1.899,2.899,013,Scanner,R,1,2019_Sep_01_1524,SST,3.0.7,60.24084010512418,
go,sst_images/Left_Arrow.bmp,None,1,1871,None,0,93,93,93,,1,1,0.3063183859921992,go,0.05000000000000002,1.871,2.871,013,Scanner,R,1,2019_Sep_01_1524,SST,3.0.7,60.24084010512418,
go,sst_images/Right_Arrow.bmp,None,2,1095,None,0,94,94,94,,2,1,0.4052534140064381,go,0.05000000000000002,1.095,2.0949999999999998,013,Scanner,R,1,2019_Sep_01_1524,SST,3.0.7,60.24084010512418,
go,sst_images/Left_Arrow.bmp,None,1,790,None,0,95,95,95,,2,0,0.37195582600543275,go,0.05000000000000002,0.79,1.79,013,Scanner,R,1,2019_Sep_01_1524,SST,3.0.7,60.24084010512418,
go,sst_images/Left_Arrow.bmp,None,1,1633,None,0,96,96,96,,1,1,0.4374925249721855,go,0.05000000000000002,1.633,2.633,013,Scanner,R,1,2019_Sep_01_1524,SST,3.0.7,60.24084010512418,
go,sst_images/Left_Arrow.bmp,None,1,791,None,0,97,97,97,,1,1,0.5542312890174799,go,0.05000000000000002,0.791,1.791,013,Scanner,R,1,2019_Sep_01_1524,SST,3.0.7,60.24084010512418,
go,sst_images/Right_Arrow.bmp,None,2,750,None,0,98,98,98,,2,1,0.4889301870134659,go,0.05000000000000002,0.75,1.75,013,Scanner,R,1,2019_Sep_01_1524,SST,3.0.7,60.24084010512418,
stop,sst_images/Right_Arrow.bmp,sst_images/Stop_Arrow.bmp,none,893,None,0,99,99,99,,None,1,,stop,0.10000000000000002,0.893,1.893,013,Scanner,R,1,2019_Sep_01_1524,SST,3.0.7,60.24084010512418,
go,sst_images/Left_Arrow.bmp,None,1,748,None,0,100,100,100,,1,1,0.4048644489957951,go,0.10000000000000002,0.748,1.748,013,Scanner,R,1,2019_Sep_01_1524,SST,3.0.7,60.24084010512418,
go,sst_images/Right_Arrow.bmp,None,2,1219,None,0,101,101,101,,2,1,0.43835820304229856,go,0.10000000000000002,1.219,2.2190000000000003,013,Scanner,R,1,2019_Sep_01_1524,SST,3.0.7,60.24084010512418,
go,sst_images/Right_Arrow.bmp,None,2,938,None,0,102,102,102,,2,1,0.38900835101958364,go,0.10000000000000002,0.938,1.938,013,Scanner,R,1,2019_Sep_01_1524,SST,3.0.7,60.24084010512418,
go,sst_images/Left_Arrow.bmp,None,1,706,None,0,103,103,103,,1,1,0.3033162970095873,go,0.10000000000000002,0.706,1.706,013,Scanner,R,1,2019_Sep_01_1524,SST,3.0.7,60.24084010512418,
stop,sst_images/Left_Arrow.bmp,sst_images/Stop_Arrow.bmp,none,740,None,0,104,104,104,,None,1,,stop,0.15000000000000002,0.74,1.74,013,Scanner,R,1,2019_Sep_01_1524,SST,3.0.7,60.24084010512418,
go,sst_images/Right_Arrow.bmp,None,2,1313,None,0,105,105,105,,2,1,0.5527274829801172,go,0.15000000000000002,1.313,2.3129999999999997,013,Scanner,R,1,2019_Sep_01_1524,SST,3.0.7,60.24084010512418,
go,sst_images/Right_Arrow.bmp,None,2,869,None,0,106,106,106,,2,1,0.5210113080102019,go,0.15000000000000002,0.869,1.869,013,Scanner,R,1,2019_Sep_01_1524,SST,3.0.7,60.24084010512418,
go,sst_images/Left_Arrow.bmp,None,1,862,None,0,107,107,107,,1,1,0.4701988350134343,go,0.15000000000000002,0.862,1.862,013,Scanner,R,1,2019_Sep_01_1524,SST,3.0.7,60.24084010512418,
stop,sst_images/Left_Arrow.bmp,sst_images/Stop_Arrow.bmp,none,894,None,0,108,108,108,,1,0,0.43731808598386124,stop,0.10000000000000002,0.894,1.9066819140161388,013,Scanner,R,1,2019_Sep_01_1524,SST,3.0.7,60.24084010512418,
go,sst_images/Left_Arrow.bmp,None,1,1016,None,0,109,109,109,,1,1,0.4375792740029283,go,0.10000000000000002,1.016,2.016,013,Scanner,R,1,2019_Sep_01_1524,SST,3.0.7,60.24084010512418,
go,sst_images/Right_Arrow.bmp,None,2,929,None,0,110,110,110,,2,1,0.3536732300417498,go,0.10000000000000002,0.929,1.929,013,Scanner,R,1,2019_Sep_01_1524,SST,3.0.7,60.24084010512418,
stop,sst_images/Right_Arrow.bmp,sst_images/Stop_Arrow.bmp,none,758,None,0,111,111,111,,1,0,0.3215537929791026,stop,0.05000000000000002,0.758,1.8364462070208976,013,Scanner,R,1,2019_Sep_01_1524,SST,3.0.7,60.24084010512418,
go,sst_images/Right_Arrow.bmp,None,2,1181,None,0,112,112,112,,2,1,0.4542861139634624,go,0.05000000000000002,1.181,2.181,013,Scanner,R,1,2019_Sep_01_1524,SST,3.0.7,60.24084010512418,
go,sst_images/Left_Arrow.bmp,None,1,747,None,0,113,113,113,,1,1,0.3545764169539325,go,0.05000000000000002,0.747,1.7469999999999999,013,Scanner,R,1,2019_Sep_01_1524,SST,3.0.7,60.24084010512418,
go,sst_images/Right_Arrow.bmp,None,2,742,None,0,114,114,114,,2,1,0.3884200840257108,go,0.05000000000000002,0.742,1.742,013,Scanner,R,1,2019_Sep_01_1524,SST,3.0.7,60.24084010512418,
stop,sst_images/Left_Arrow.bmp,sst_images/Stop_Arrow.bmp,none,813,None,0,115,115,115,,1,0,0.3379276149789803,stop,1.3877787807814457e-17,0.813,1.8250723850210198,013,Scanner,R,1,2019_Sep_01_1524,SST,3.0.7,60.24084010512418,
go,sst_images/Left_Arrow.bmp,None,1,702,None,0,116,116,116,,1,1,0.4367709230282344,go,1.3877787807814457e-17,0.702,1.702,013,Scanner,R,1,2019_Sep_01_1524,SST,3.0.7,60.24084010512418,
go,sst_images/Right_Arrow.bmp,None,2,922,None,0,117,117,117,,2,1,0.40097958798287436,go,1.3877787807814457e-17,0.922,1.9220000000000002,013,Scanner,R,1,2019_Sep_01_1524,SST,3.0.7,60.24084010512418,
go,sst_images/Left_Arrow.bmp,None,1,959,None,0,118,118,118,,1,1,0.37111451500095427,go,1.3877787807814457e-17,0.959,1.959,013,Scanner,R,1,2019_Sep_01_1524,SST,3.0.7,60.24084010512418,
stop,sst_images/Right_Arrow.bmp,sst_images/Stop_Arrow.bmp,none,758,None,0,119,119,119,,None,1,,stop,0.05000000000000002,0.758,1.758,013,Scanner,R,1,2019_Sep_01_1524,SST,3.0.7,60.24084010512418,
go,sst_images/Right_Arrow.bmp,None,2,760,None,0,120,120,120,,2,1,0.5384380350005813,go,0.05000000000000002,0.76,1.76,013,Scanner,R,1,2019_Sep_01_1524,SST,3.0.7,60.24084010512418,
go,sst_images/Left_Arrow.bmp,None,1,702,None,0,121,121,121,,1,1,0.4029226749553345,go,0.05000000000000002,0.702,1.702,013,Scanner,R,1,2019_Sep_01_1524,SST,3.0.7,60.24084010512418,
go,sst_images/Right_Arrow.bmp,None,2,879,None,0,122,122,122,,2,1,0.3379040279542096,go,0.05000000000000002,0.879,1.879,013,Scanner,R,1,2019_Sep_01_1524,SST,3.0.7,60.24084010512418,
go,sst_images/Left_Arrow.bmp,None,1,701,None,0,123,123,123,,1,1,0.33591600495856255,go,0.05000000000000002,0.701,1.701,013,Scanner,R,1,2019_Sep_01_1524,SST,3.0.7,60.24084010512418,
go,sst_images/Right_Arrow.bmp,None,2,779,None,0,124,124,124,,2,1,0.3861738539999351,go,0.05000000000000002,0.779,1.779,013,Scanner,R,1,2019_Sep_01_1524,SST,3.0.7,60.24084010512418,
go,sst_images/Left_Arrow.bmp,None,1,737,None,0,125,125,125,,1,1,0.45254104502964765,go,0.05000000000000002,0.737,1.737,013,Scanner,R,1,2019_Sep_01_1524,SST,3.0.7,60.24084010512418,
go,sst_images/Right_Arrow.bmp,None,2,782,None,0,126,126,126,,2,1,0.35432126600062475,go,0.05000000000000002,0.782,1.782,013,Scanner,R,1,2019_Sep_01_1524,SST,3.0.7,60.24084010512418,
go,sst_images/Right_Arrow.bmp,None,2,890,None,0,127,127,127,,1,0,0.3709541219868697,go,0.05000000000000002,0.89,1.8900000000000001,013,Scanner,R,1,2019_Sep_01_1524,SST,3.0.7,60.24084010512418,
go,sst_images/Left_Arrow.bmp,None,1,707,None,0,128,128,128,,1,1,0.3875090550282039,go,0.05000000000000002,0.707,1.7069999999999999,013,Scanner,R,1,2019_Sep_01_1524,SST,3.0.7,60.24084010512418,
go,sst_images/Left_Arrow.bmp,None,1,755,None,0,129,129,129,,1,1,0.48209947295254096,go,0.05000000000000002,0.755,1.755,013,Scanner,R,1,2019_Sep_01_1524,SST,3.0.7,60.24084010512418,
go,sst_images/Left_Arrow.bmp,None,1,750,None,0,130,130,130,,1,1,0.4538592559983954,go,0.05000000000000002,0.75,1.75,013,Scanner,R,1,2019_Sep_01_1524,SST,3.0.7,60.24084010512418,
go,sst_images/Right_Arrow.bmp,None,2,1732,None,0,131,131,131,,2,1,0.4875059500336647,go,0.05000000000000002,1.732,2.732,013,Scanner,R,1,2019_Sep_01_1524,SST,3.0.7,60.24084010512418,
go,sst_images/Left_Arrow.bmp,None,1,865,None,0,132,132,132,,1,1,0.3201759969815612,go,0.05000000000000002,0.865,1.865,013,Scanner,R,1,2019_Sep_01_1524,SST,3.0.7,60.24084010512418,
go,sst_images/Left_Arrow.bmp,None,1,722,None,0,133,133,133,,1,1,0.3722140609752387,go,0.05000000000000002,0.722,1.722,013,Scanner,R,1,2019_Sep_01_1524,SST,3.0.7,60.24084010512418,
stop,sst_images/Right_Arrow.bmp,sst_images/Stop_Arrow.bmp,none,798,None,0,134,134,134,,None,1,,stop,0.10000000000000002,0.798,1.798,013,Scanner,R,1,2019_Sep_01_1524,SST,3.0.7,60.24084010512418,
go,sst_images/Left_Arrow.bmp,None,1,893,None,0,135,135,135,,1,1,0.3688016220112331,go,0.10000000000000002,0.893,1.893,013,Scanner,R,1,2019_Sep_01_1524,SST,3.0.7,60.24084010512418,
go,sst_images/Right_Arrow.bmp,None,2,756,None,0,136,136,136,,2,1,0.4711742019862868,go,0.10000000000000002,0.756,1.756,013,Scanner,R,1,2019_Sep_01_1524,SST,3.0.7,60.24084010512418,
go,sst_images/Left_Arrow.bmp,None,1,804,None,0,137,137,137,,1,1,0.38404000899754465,go,0.10000000000000002,0.804,1.804,013,Scanner,R,1,2019_Sep_01_1524,SST,3.0.7,60.24084010512418,
go,sst_images/Left_Arrow.bmp,None,1,700,None,0,138,138,138,,1,1,0.47104499698616564,go,0.10000000000000002,0.7,1.7,013,Scanner,R,1,2019_Sep_01_1524,SST,3.0.7,60.24084010512418,
stop,sst_images/Left_Arrow.bmp,sst_images/Stop_Arrow.bmp,none,752,None,0,139,139,139,,1,0,0.3027130060363561,stop,0.05000000000000002,0.752,1.849286993963644,013,Scanner,R,1,2019_Sep_01_1524,SST,3.0.7,60.24084010512418,
go,sst_images/Right_Arrow.bmp,None,2,727,None,0,140,140,140,,2,1,0.3518183489795774,go,0.05000000000000002,0.727,1.7269999999999999,013,Scanner,R,1,2019_Sep_01_1524,SST,3.0.7,60.24084010512418,
go,sst_images/Right_Arrow.bmp,None,2,736,None,0,141,141,141,,2,1,0.3856380839715712,go,0.05000000000000002,0.736,1.736,013,Scanner,R,1,2019_Sep_01_1524,SST,3.0.7,60.24084010512418,
go,sst_images/Left_Arrow.bmp,None,1,787,None,0,142,142,142,,1,1,0.40204594004899263,go,0.05000000000000002,0.787,1.787,013,Scanner,R,1,2019_Sep_01_1524,SST,3.0.7,60.24084010512418,
go,sst_images/Right_Arrow.bmp,None,2,758,None,0,143,143,143,,2,1,0.286684230028186,go,0.05000000000000002,0.758,1.758,013,Scanner,R,1,2019_Sep_01_1524,SST,3.0.7,60.24084010512418,
go,sst_images/Left_Arrow.bmp,None,1,765,None,0,144,144,144,,1,1,0.33837055100593716,go,0.05000000000000002,0.765,1.7650000000000001,013,Scanner,R,1,2019_Sep_01_1524,SST,3.0.7,60.24084010512418,
go,sst_images/Left_Arrow.bmp,None,1,717,None,0,145,145,145,,2,0,0.38579223002307117,go,0.05000000000000002,0.717,1.717,013,Scanner,R,1,2019_Sep_01_1524,SST,3.0.7,60.24084010512418,
go,sst_images/Right_Arrow.bmp,None,2,801,None,0,146,146,146,,2,1,0.3724844460375607,go,0.05000000000000002,0.801,1.8010000000000002,013,Scanner,R,1,2019_Sep_01_1524,SST,3.0.7,60.24084010512418,
go,sst_images/Left_Arrow.bmp,None,1,884,None,0,147,147,147,,1,1,0.31998449395177886,go,0.05000000000000002,0.884,1.884,013,Scanner,R,1,2019_Sep_01_1524,SST,3.0.7,60.24084010512418,
go,sst_images/Right_Arrow.bmp,None,2,754,None,0,148,148,148,,2,1,0.469951598031912,go,0.05000000000000002,0.754,1.754,013,Scanner,R,1,2019_Sep_01_1524,SST,3.0.7,60.24084010512418,
go,sst_images/Left_Arrow.bmp,None,1,927,None,0,149,149,149,,1,1,0.2887783619808033,go,0.05000000000000002,0.927,1.927,013,Scanner,R,1,2019_Sep_01_1524,SST,3.0.7,60.24084010512418,
go,sst_images/Right_Arrow.bmp,None,2,794,None,0,150,150,150,,2,1,0.3210620869649574,go,0.05000000000000002,0.794,1.794,013,Scanner,R,1,2019_Sep_01_1524,SST,3.0.7,60.24084010512418,
go,sst_images/Right_Arrow.bmp,None,2,1381,None,0,151,151,151,,2,1,0.32077553000999615,go,0.05000000000000002,1.381,2.3810000000000002,013,Scanner,R,1,2019_Sep_01_1524,SST,3.0.7,60.24084010512418,
go,sst_images/Left_Arrow.bmp,None,1,1259,None,0,152,152,152,,1,1,0.3385759069933556,go,0.05000000000000002,1.259,2.259,013,Scanner,R,1,2019_Sep_01_1524,SST,3.0.7,60.24084010512418,
go,sst_images/Right_Arrow.bmp,None,2,717,None,0,153,153,153,,2,1,0.3730848169652745,go,0.05000000000000002,0.717,1.717,013,Scanner,R,1,2019_Sep_01_1524,SST,3.0.7,60.24084010512418,
go,sst_images/Left_Arrow.bmp,None,1,1278,None,0,154,154,154,,1,1,0.36975911702029407,go,0.05000000000000002,1.278,2.278,013,Scanner,R,1,2019_Sep_01_1524,SST,3.0.7,60.24084010512418,
go,sst_images/Right_Arrow.bmp,None,2,1066,None,0,155,155,155,,2,1,0.3208036770229228,go,0.05000000000000002,1.066,2.066,013,Scanner,R,1,2019_Sep_01_1524,SST,3.0.7,60.24084010512418,
stop,sst_images/Left_Arrow.bmp,sst_images/Stop_Arrow.bmp,none,742,None,0,156,156,156,,1,0,0.3206882119993679,stop,1.3877787807814457e-17,0.742,1.7713117880006322,013,Scanner,R,1,2019_Sep_01_1524,SST,3.0.7,60.24084010512418,
go,sst_images/Left_Arrow.bmp,None,1,752,None,0,157,157,157,,1,1,0.5208183559589088,go,1.3877787807814457e-17,0.752,1.752,013,Scanner,R,1,2019_Sep_01_1524,SST,3.0.7,60.24084010512418,
go,sst_images/Right_Arrow.bmp,None,2,715,None,0,158,158,158,,2,1,0.33748052100418136,go,1.3877787807814457e-17,0.715,1.7149999999999999,013,Scanner,R,1,2019_Sep_01_1524,SST,3.0.7,60.24084010512418,
go,sst_images/Left_Arrow.bmp,None,1,893,None,0,159,159,159,,1,1,0.32041754497913644,go,1.3877787807814457e-17,0.893,1.893,013,Scanner,R,1,2019_Sep_01_1524,SST,3.0.7,60.24084010512418,
go,sst_images/Left_Arrow.bmp,None,1,998,None,0,160,160,160,,1,1,0.5037576039903797,go,1.3877787807814457e-17,0.998,1.998,013,Scanner,R,1,2019_Sep_01_1524,SST,3.0.7,60.24084010512418,
stop,sst_images/Left_Arrow.bmp,sst_images/Stop_Arrow.bmp,none,745,None,0,161,161,161,,None,1,,stop,0.05000000000000002,0.745,1.7449999999999999,013,Scanner,R,1,2019_Sep_01_1524,SST,3.0.7,60.24084010512418,
go,sst_images/Right_Arrow.bmp,None,2,1453,None,0,162,162,162,,2,1,0.4875711210188456,go,0.05000000000000002,1.453,2.4530000000000003,013,Scanner,R,1,2019_Sep_01_1524,SST,3.0.7,60.24084010512418,
go,sst_images/Left_Arrow.bmp,None,1,847,None,0,163,163,163,,1,1,0.3790218909853138,go,0.05000000000000002,0.847,1.847,013,Scanner,R,1,2019_Sep_01_1524,SST,3.0.7,60.24084010512418,
go,sst_images/Right_Arrow.bmp,None,2,1248,None,0,164,164,164,,2,1,0.3369012400507927,go,0.05000000000000002,1.248,2.248,013,Scanner,R,1,2019_Sep_01_1524,SST,3.0.7,60.24084010512418,
go,sst_images/Right_Arrow.bmp,None,2,829,None,0,165,165,165,,2,1,0.5546365149784833,go,0.05000000000000002,0.829,1.829,013,Scanner,R,1,2019_Sep_01_1524,SST,3.0.7,60.24084010512418,
go,sst_images/Right_Arrow.bmp,None,2,1113,None,0,166,166,166,,2,1,0.44412253296468407,go,0.05000000000000002,1.113,2.113,013,Scanner,R,1,2019_Sep_01_1524,SST,3.0.7,60.24084010512418,
go,sst_images/Left_Arrow.bmp,None,1,1154,None,0,167,167,167,,1,1,0.4378701149835251,go,0.05000000000000002,1.154,2.154,013,Scanner,R,1,2019_Sep_01_1524,SST,3.0.7,60.24084010512418,
go,sst_images/Right_Arrow.bmp,None,2,928,None,0,168,168,168,,2,1,0.4045963439857587,go,0.05000000000000002,0.928,1.928,013,Scanner,R,1,2019_Sep_01_1524,SST,3.0.7,60.24084010512418,
go,sst_images/Right_Arrow.bmp,None,2,988,None,0,169,169,169,,1,0,0.38632170896744356,go,0.05000000000000002,0.988,1.988,013,Scanner,R,1,2019_Sep_01_1524,SST,3.0.7,60.24084010512418,
go,sst_images/Left_Arrow.bmp,None,1,813,None,0,170,170,170,,1,1,0.3412496669916436,go,0.05000000000000002,0.813,1.813,013,Scanner,R,1,2019_Sep_01_1524,SST,3.0.7,60.24084010512418,
stop,sst_images/Right_Arrow.bmp,sst_images/Stop_Arrow.bmp,none,783,None,0,171,171,171,,2,0,0.3373076290008612,stop,1.3877787807814457e-17,0.783,1.7956923709991388,013,Scanner,R,1,2019_Sep_01_1524,SST,3.0.7,60.24084010512418,
go,sst_images/Right_Arrow.bmp,None,2,931,None,0,172,172,172,,1,0,0.31926801800727844,go,1.3877787807814457e-17,0.931,1.931,013,Scanner,R,1,2019_Sep_01_1524,SST,3.0.7,60.24084010512418,
go,sst_images/Right_Arrow.bmp,None,2,946,None,0,173,173,173,,2,1,0.34263570804614574,go,1.3877787807814457e-17,0.946,1.946,013,Scanner,R,1,2019_Sep_01_1524,SST,3.0.7,60.24084010512418,
go,sst_images/Right_Arrow.bmp,None,2,800,None,0,174,174,174,,2,1,0.3448159539839253,go,1.3877787807814457e-17,0.8,1.8,013,Scanner,R,1,2019_Sep_01_1524,SST,3.0.7,60.24084010512418,
go,sst_images/Left_Arrow.bmp,None,1,962,None,0,175,175,175,,2,0,0.2771131039480679,go,1.3877787807814457e-17,0.962,1.962,013,Scanner,R,1,2019_Sep_01_1524,SST,3.0.7,60.24084010512418,
go,sst_images/Right_Arrow.bmp,None,2,740,None,0,176,176,176,,2,1,0.3616099230130203,go,1.3877787807814457e-17,0.74,1.74,013,Scanner,R,1,2019_Sep_01_1524,SST,3.0.7,60.24084010512418,
go,sst_images/Left_Arrow.bmp,None,1,758,None,0,177,177,177,,1,1,0.3432531530270353,go,1.3877787807814457e-17,0.758,1.758,013,Scanner,R,1,2019_Sep_01_1524,SST,3.0.7,60.24084010512418,
stop,sst_images/Left_Arrow.bmp,sst_images/Stop_Arrow.bmp,none,798,None,0,178,178,178,,None,1,,stop,0.05000000000000002,0.798,1.798,013,Scanner,R,1,2019_Sep_01_1524,SST,3.0.7,60.24084010512418,
go,sst_images/Right_Arrow.bmp,None,2,737,2661.0,0,179,179,179,,1,0,0.37592825200408697,go,0.05000000000000002,0.737,1.737,013,Scanner,R,1,2019_Sep_01_1524,SST,3.0.7,60.24084010512418,
