trial_type,arrow_1,arrow_2,corrAns,jitter,run_end_fixation,trials.thisRepN,trials.thisTrialN,trials.thisN,trials.thisIndex,randomized TrialOrder,key_response.keys,key_response.corr,key_response.rt,trial_t.routineEndVal,ss_delay,iti_duration,SOA,participant,prac_or_scan,handedness,run,date,expName,psychopyVersion,frameRate,
go,sst_images/Left_Arrow.bmp,None,1,924,None,0,0,0,0,11,1,1,0.8025191599881509,go,0.05,0.924,1.924,014,Scanner,R,1,2019_Sep_08_1449,SST,3.0.7,60.11341911183733,
go,sst_images/Right_Arrow.bmp,None,2,771,None,0,1,1,1,,2,1,0.35505125400959514,go,0.05,0.771,1.771,014,Scanner,R,1,2019_Sep_08_1449,SST,3.0.7,60.11341911183733,
stop,sst_images/Right_Arrow.bmp,sst_images/Stop_Arrow.bmp,none,954,None,0,2,2,2,,None,1,,stop,0.1,0.954,1.954,014,Scanner,R,1,2019_Sep_08_1449,SST,3.0.7,60.11341911183733,
go,sst_images/Right_Arrow.bmp,None,2,902,None,0,3,3,3,,2,1,0.38650452699221205,go,0.1,0.902,1.9020000000000001,014,Scanner,R,1,2019_Sep_08_1449,SST,3.0.7,60.11341911183733,
go,sst_images/Left_Arrow.bmp,None,1,711,None,0,4,4,4,,1,1,0.35420969600090757,go,0.1,0.711,1.7109999999999999,014,Scanner,R,1,2019_Sep_08_1449,SST,3.0.7,60.11341911183733,
stop,sst_images/Left_Arrow.bmp,sst_images/Stop_Arrow.bmp,none,718,None,0,5,5,5,,None,1,,stop,0.15000000000000002,0.718,1.7180000000000002,014,Scanner,R,1,2019_Sep_08_1449,SST,3.0.7,60.11341911183733,
go,sst_images/Left_Arrow.bmp,None,1,875,None,0,6,6,6,,1,1,0.35313977200712543,go,0.15000000000000002,0.875,1.875,014,Scanner,R,1,2019_Sep_08_1449,SST,3.0.7,60.11341911183733,
go,sst_images/Right_Arrow.bmp,None,2,798,None,0,7,7,7,,2,1,0.3361628889979329,go,0.15000000000000002,0.798,1.798,014,Scanner,R,1,2019_Sep_08_1449,SST,3.0.7,60.11341911183733,
go,sst_images/Left_Arrow.bmp,None,1,794,None,0,8,8,8,,1,1,0.3374034400039818,go,0.15000000000000002,0.794,1.794,014,Scanner,R,1,2019_Sep_08_1449,SST,3.0.7,60.11341911183733,
stop,sst_images/Left_Arrow.bmp,sst_images/Stop_Arrow.bmp,none,704,None,0,9,9,9,,1,0,0.32032685799640603,stop,0.10000000000000002,0.704,1.833673142003594,014,Scanner,R,1,2019_Sep_08_1449,SST,3.0.7,60.11341911183733,
go,sst_images/Right_Arrow.bmp,None,2,731,None,0,10,10,10,,2,1,0.5067340069945203,go,0.10000000000000002,0.731,1.7309999999999999,014,Scanner,R,1,2019_Sep_08_1449,SST,3.0.7,60.11341911183733,
go,sst_images/Right_Arrow.bmp,None,2,715,None,0,11,11,11,,2,1,0.3931744800065644,go,0.10000000000000002,0.715,1.7149999999999999,014,Scanner,R,1,2019_Sep_08_1449,SST,3.0.7,60.11341911183733,
stop,sst_images/Right_Arrow.bmp,sst_images/Stop_Arrow.bmp,none,879,None,0,12,12,12,,None,1,,stop,0.15000000000000002,0.879,1.8790000000000002,014,Scanner,R,1,2019_Sep_08_1449,SST,3.0.7,60.11341911183733,
go,sst_images/Left_Arrow.bmp,None,1,1153,None,0,13,13,13,,1,1,0.3381490029860288,go,0.15000000000000002,1.153,2.153,014,Scanner,R,1,2019_Sep_08_1449,SST,3.0.7,60.11341911183733,
go,sst_images/Right_Arrow.bmp,None,2,1426,None,0,14,14,14,,2,1,0.37171685200883076,go,0.15000000000000002,1.426,2.426,014,Scanner,R,1,2019_Sep_08_1449,SST,3.0.7,60.11341911183733,
go,sst_images/Left_Arrow.bmp,None,1,776,None,0,15,15,15,,1,1,0.3715316809975775,go,0.15000000000000002,0.776,1.776,014,Scanner,R,1,2019_Sep_08_1449,SST,3.0.7,60.11341911183733,
go,sst_images/Left_Arrow.bmp,None,1,757,None,0,16,16,16,,1,1,0.42195687000639737,go,0.15000000000000002,0.757,1.7570000000000001,014,Scanner,R,1,2019_Sep_08_1449,SST,3.0.7,60.11341911183733,
go,sst_images/Left_Arrow.bmp,None,1,735,None,0,17,17,17,,1,1,0.4205865830008406,go,0.15000000000000002,0.735,1.7349999999999999,014,Scanner,R,1,2019_Sep_08_1449,SST,3.0.7,60.11341911183733,
stop,sst_images/Right_Arrow.bmp,sst_images/Stop_Arrow.bmp,none,855,None,0,18,18,18,,2,0,0.40508589599630795,stop,0.10000000000000002,0.855,1.899914104003692,014,Scanner,R,1,2019_Sep_08_1449,SST,3.0.7,60.11341911183733,
go,sst_images/Right_Arrow.bmp,None,2,787,None,0,19,19,19,,2,1,0.45168935498804785,go,0.10000000000000002,0.787,1.787,014,Scanner,R,1,2019_Sep_08_1449,SST,3.0.7,60.11341911183733,
go,sst_images/Left_Arrow.bmp,None,1,886,None,0,20,20,20,,1,1,0.5197724280005787,go,0.10000000000000002,0.886,1.8860000000000001,014,Scanner,R,1,2019_Sep_08_1449,SST,3.0.7,60.11341911183733,
go,sst_images/Left_Arrow.bmp,None,1,872,None,0,21,21,21,,1,1,0.4551275879930472,go,0.10000000000000002,0.872,1.8719999999999999,014,Scanner,R,1,2019_Sep_08_1449,SST,3.0.7,60.11341911183733,
stop,sst_images/Left_Arrow.bmp,sst_images/Stop_Arrow.bmp,none,843,None,0,22,22,22,,1,0,0.3196211620088434,stop,0.05000000000000002,0.843,1.9233788379911567,014,Scanner,R,1,2019_Sep_08_1449,SST,3.0.7,60.11341911183733,
go,sst_images/Right_Arrow.bmp,None,2,717,None,0,23,23,23,,2,1,0.4540136290015653,go,0.05000000000000002,0.717,1.717,014,Scanner,R,1,2019_Sep_08_1449,SST,3.0.7,60.11341911183733,
go,sst_images/Left_Arrow.bmp,None,1,800,None,0,24,24,24,,1,1,0.47100662800949067,go,0.05000000000000002,0.8,1.8,014,Scanner,R,1,2019_Sep_08_1449,SST,3.0.7,60.11341911183733,
go,sst_images/Right_Arrow.bmp,None,2,836,None,0,25,25,25,,2,1,0.35284912899078336,go,0.05000000000000002,0.836,1.8359999999999999,014,Scanner,R,1,2019_Sep_08_1449,SST,3.0.7,60.11341911183733,
stop,sst_images/Right_Arrow.bmp,sst_images/Stop_Arrow.bmp,none,1015,None,0,26,26,26,,None,1,,stop,0.10000000000000002,1.015,2.0149999999999997,014,Scanner,R,1,2019_Sep_08_1449,SST,3.0.7,60.11341911183733,
go,sst_images/Left_Arrow.bmp,None,1,718,None,0,27,27,27,,1,1,0.3865268140070839,go,0.10000000000000002,0.718,1.718,014,Scanner,R,1,2019_Sep_08_1449,SST,3.0.7,60.11341911183733,
go,sst_images/Right_Arrow.bmp,None,2,807,None,0,28,28,28,,2,1,0.3363528299960308,go,0.10000000000000002,0.807,1.807,014,Scanner,R,1,2019_Sep_08_1449,SST,3.0.7,60.11341911183733,
go,sst_images/Right_Arrow.bmp,None,2,757,None,0,29,29,29,,2,1,0.5049603160005063,go,0.10000000000000002,0.757,1.7570000000000001,014,Scanner,R,1,2019_Sep_08_1449,SST,3.0.7,60.11341911183733,
go,sst_images/Left_Arrow.bmp,None,1,974,None,0,30,30,30,,1,1,0.2705089119990589,go,0.10000000000000002,0.974,1.974,014,Scanner,R,1,2019_Sep_08_1449,SST,3.0.7,60.11341911183733,
go,sst_images/Right_Arrow.bmp,None,2,1107,None,0,31,31,31,,2,1,0.38803947299311403,go,0.10000000000000002,1.107,2.107,014,Scanner,R,1,2019_Sep_08_1449,SST,3.0.7,60.11341911183733,
go,sst_images/Right_Arrow.bmp,None,2,777,None,0,32,32,32,,2,1,0.4198882860073354,go,0.10000000000000002,0.777,1.7770000000000001,014,Scanner,R,1,2019_Sep_08_1449,SST,3.0.7,60.11341911183733,
stop,sst_images/Right_Arrow.bmp,sst_images/Stop_Arrow.bmp,none,723,None,0,33,33,33,,None,1,,stop,0.15000000000000002,0.723,1.723,014,Scanner,R,1,2019_Sep_08_1449,SST,3.0.7,60.11341911183733,
go,sst_images/Left_Arrow.bmp,None,1,963,None,0,34,34,34,,1,1,0.4879099009995116,go,0.15000000000000002,0.963,1.963,014,Scanner,R,1,2019_Sep_08_1449,SST,3.0.7,60.11341911183733,
go,sst_images/Right_Arrow.bmp,None,2,1186,None,0,35,35,35,,2,1,0.32082626200281084,go,0.15000000000000002,1.186,2.186,014,Scanner,R,1,2019_Sep_08_1449,SST,3.0.7,60.11341911183733,
go,sst_images/Left_Arrow.bmp,None,1,793,None,0,36,36,36,,1,1,0.319003137992695,go,0.15000000000000002,0.793,1.7930000000000001,014,Scanner,R,1,2019_Sep_08_1449,SST,3.0.7,60.11341911183733,
go,sst_images/Left_Arrow.bmp,None,1,1207,None,0,37,37,37,,1,1,0.38523374500800855,go,0.15000000000000002,1.207,2.207,014,Scanner,R,1,2019_Sep_08_1449,SST,3.0.7,60.11341911183733,
go,sst_images/Right_Arrow.bmp,None,2,800,None,0,38,38,38,,2,1,0.37042875098995864,go,0.15000000000000002,0.8,1.8,014,Scanner,R,1,2019_Sep_08_1449,SST,3.0.7,60.11341911183733,
go,sst_images/Right_Arrow.bmp,None,2,1156,None,0,39,39,39,,2,1,0.4042503599921474,go,0.15000000000000002,1.156,2.1559999999999997,014,Scanner,R,1,2019_Sep_08_1449,SST,3.0.7,60.11341911183733,
stop,sst_images/Left_Arrow.bmp,sst_images/Stop_Arrow.bmp,none,1032,None,0,40,40,40,,None,1,,stop,0.2,1.032,2.0319999999999996,014,Scanner,R,1,2019_Sep_08_1449,SST,3.0.7,60.11341911183733,
go,sst_images/Left_Arrow.bmp,None,1,1088,None,0,41,41,41,,1,1,0.3373333959898446,go,0.2,1.088,2.088,014,Scanner,R,1,2019_Sep_08_1449,SST,3.0.7,60.11341911183733,
go,sst_images/Left_Arrow.bmp,None,1,922,None,0,42,42,42,,1,1,0.40700049699808005,go,0.2,0.922,1.9220000000000002,014,Scanner,R,1,2019_Sep_08_1449,SST,3.0.7,60.11341911183733,
go,sst_images/Right_Arrow.bmp,None,2,733,None,0,43,43,43,,2,1,0.4034981860022526,go,0.2,0.733,1.733,014,Scanner,R,1,2019_Sep_08_1449,SST,3.0.7,60.11341911183733,
stop,sst_images/Right_Arrow.bmp,sst_images/Stop_Arrow.bmp,none,717,None,0,44,44,44,,2,0,0.40421288399375044,stop,0.15000000000000002,0.717,1.8127871160062496,014,Scanner,R,1,2019_Sep_08_1449,SST,3.0.7,60.11341911183733,
go,sst_images/Left_Arrow.bmp,None,1,870,None,0,45,45,45,,1,1,0.3859744559886167,go,0.15000000000000002,0.87,1.87,014,Scanner,R,1,2019_Sep_08_1449,SST,3.0.7,60.11341911183733,
go,sst_images/Left_Arrow.bmp,None,1,765,None,0,46,46,46,,1,1,0.4207552890002262,go,0.15000000000000002,0.765,1.7650000000000001,014,Scanner,R,1,2019_Sep_08_1449,SST,3.0.7,60.11341911183733,
go,sst_images/Right_Arrow.bmp,None,2,861,None,0,47,47,47,,2,1,0.3543323439953383,go,0.15000000000000002,0.861,1.861,014,Scanner,R,1,2019_Sep_08_1449,SST,3.0.7,60.11341911183733,
go,sst_images/Right_Arrow.bmp,None,2,772,None,0,48,48,48,,2,1,0.4880501040024683,go,0.15000000000000002,0.772,1.772,014,Scanner,R,1,2019_Sep_08_1449,SST,3.0.7,60.11341911183733,
go,sst_images/Right_Arrow.bmp,None,2,937,None,0,49,49,49,,2,1,0.6855848109989893,go,0.15000000000000002,0.937,1.937,014,Scanner,R,1,2019_Sep_08_1449,SST,3.0.7,60.11341911183733,
stop,sst_images/Left_Arrow.bmp,sst_images/Stop_Arrow.bmp,none,1296,None,0,50,50,50,,1,0,0.4035537339950679,stop,0.10000000000000002,1.296,2.342446266004932,014,Scanner,R,1,2019_Sep_08_1449,SST,3.0.7,60.11341911183733,
go,sst_images/Left_Arrow.bmp,None,1,757,None,0,51,51,51,,1,1,0.5379890449985396,go,0.10000000000000002,0.757,1.7570000000000001,014,Scanner,R,1,2019_Sep_08_1449,SST,3.0.7,60.11341911183733,
go,sst_images/Left_Arrow.bmp,None,1,751,None,0,52,52,52,,1,1,0.3838331750012003,go,0.10000000000000002,0.751,1.751,014,Scanner,R,1,2019_Sep_08_1449,SST,3.0.7,60.11341911183733,
go,sst_images/Left_Arrow.bmp,None,1,900,None,0,53,53,53,,1,1,0.4049092819914222,go,0.10000000000000002,0.9,1.9,014,Scanner,R,1,2019_Sep_08_1449,SST,3.0.7,60.11341911183733,
go,sst_images/Right_Arrow.bmp,None,2,815,None,0,54,54,54,,2,1,0.4052936670050258,go,0.10000000000000002,0.815,1.815,014,Scanner,R,1,2019_Sep_08_1449,SST,3.0.7,60.11341911183733,
stop,sst_images/Right_Arrow.bmp,sst_images/Stop_Arrow.bmp,none,865,None,0,55,55,55,,None,1,,stop,0.15000000000000002,0.865,1.865,014,Scanner,R,1,2019_Sep_08_1449,SST,3.0.7,60.11341911183733,
go,sst_images/Right_Arrow.bmp,None,2,701,None,0,56,56,56,,2,1,0.5711801349971211,go,0.15000000000000002,0.701,1.701,014,Scanner,R,1,2019_Sep_08_1449,SST,3.0.7,60.11341911183733,
go,sst_images/Left_Arrow.bmp,None,1,963,None,0,57,57,57,,1,1,0.5196964560018387,go,0.15000000000000002,0.963,1.963,014,Scanner,R,1,2019_Sep_08_1449,SST,3.0.7,60.11341911183733,
go,sst_images/Left_Arrow.bmp,None,1,757,None,0,58,58,58,,1,1,0.4709340669942321,go,0.15000000000000002,0.757,1.7570000000000001,014,Scanner,R,1,2019_Sep_08_1449,SST,3.0.7,60.11341911183733,
go,sst_images/Left_Arrow.bmp,None,1,799,None,0,59,59,59,,1,1,0.4189813709963346,go,0.15000000000000002,0.799,1.799,014,Scanner,R,1,2019_Sep_08_1449,SST,3.0.7,60.11341911183733,
go,sst_images/Right_Arrow.bmp,None,2,862,None,0,60,60,60,,2,1,0.6817471279937308,go,0.15000000000000002,0.862,1.862,014,Scanner,R,1,2019_Sep_08_1449,SST,3.0.7,60.11341911183733,
stop,sst_images/Right_Arrow.bmp,sst_images/Stop_Arrow.bmp,none,1102,None,0,61,61,61,,2,0,0.38633455699891783,stop,0.10000000000000002,1.102,2.165665443001082,014,Scanner,R,1,2019_Sep_08_1449,SST,3.0.7,60.11341911183733,
go,sst_images/Left_Arrow.bmp,None,1,704,None,0,62,62,62,,1,1,0.37022870300279465,go,0.10000000000000002,0.704,1.704,014,Scanner,R,1,2019_Sep_08_1449,SST,3.0.7,60.11341911183733,
go,sst_images/Left_Arrow.bmp,None,1,928,None,0,63,63,63,,1,1,0.3880883870006073,go,0.10000000000000002,0.928,1.928,014,Scanner,R,1,2019_Sep_08_1449,SST,3.0.7,60.11341911183733,
go,sst_images/Right_Arrow.bmp,None,2,1164,None,0,64,64,64,,2,1,0.3371934680035338,go,0.10000000000000002,1.164,2.1639999999999997,014,Scanner,R,1,2019_Sep_08_1449,SST,3.0.7,60.11341911183733,
go,sst_images/Right_Arrow.bmp,None,2,746,None,0,65,65,65,,2,1,0.3873341340076877,go,0.10000000000000002,0.746,1.746,014,Scanner,R,1,2019_Sep_08_1449,SST,3.0.7,60.11341911183733,
go,sst_images/Left_Arrow.bmp,None,1,1003,None,0,66,66,66,,1,1,0.33606173600128386,go,0.10000000000000002,1.003,2.003,014,Scanner,R,1,2019_Sep_08_1449,SST,3.0.7,60.11341911183733,
stop,sst_images/Left_Arrow.bmp,sst_images/Stop_Arrow.bmp,none,918,None,0,67,67,67,,None,1,,stop,0.15000000000000002,0.918,1.9180000000000001,014,Scanner,R,1,2019_Sep_08_1449,SST,3.0.7,60.11341911183733,
go,sst_images/Right_Arrow.bmp,None,2,1036,None,0,68,68,68,,2,1,0.3212021939980332,go,0.15000000000000002,1.036,2.036,014,Scanner,R,1,2019_Sep_08_1449,SST,3.0.7,60.11341911183733,
go,sst_images/Left_Arrow.bmp,None,1,1122,None,0,69,69,69,,1,1,0.31459731100767385,go,0.15000000000000002,1.122,2.122,014,Scanner,R,1,2019_Sep_08_1449,SST,3.0.7,60.11341911183733,
go,sst_images/Right_Arrow.bmp,None,2,1296,None,0,70,70,70,,2,1,0.33658433199161664,go,0.15000000000000002,1.296,2.2960000000000003,014,Scanner,R,1,2019_Sep_08_1449,SST,3.0.7,60.11341911183733,
go,sst_images/Right_Arrow.bmp,None,2,1072,None,0,71,71,71,,2,1,0.4695657620031852,go,0.15000000000000002,1.072,2.072,014,Scanner,R,1,2019_Sep_08_1449,SST,3.0.7,60.11341911183733,
go,sst_images/Left_Arrow.bmp,None,1,844,None,0,72,72,72,,1,1,0.43790852300298866,go,0.15000000000000002,0.844,1.8439999999999999,014,Scanner,R,1,2019_Sep_08_1449,SST,3.0.7,60.11341911183733,
go,sst_images/Right_Arrow.bmp,None,2,935,None,0,73,73,73,,2,1,0.3714043850050075,go,0.15000000000000002,0.935,1.935,014,Scanner,R,1,2019_Sep_08_1449,SST,3.0.7,60.11341911183733,
go,sst_images/Left_Arrow.bmp,None,1,1079,None,0,74,74,74,,1,1,0.32121681100397836,go,0.15000000000000002,1.079,2.0789999999999997,014,Scanner,R,1,2019_Sep_08_1449,SST,3.0.7,60.11341911183733,
go,sst_images/Right_Arrow.bmp,None,2,1187,None,0,75,75,75,,2,1,0.4337005799898179,go,0.15000000000000002,1.187,2.1870000000000003,014,Scanner,R,1,2019_Sep_08_1449,SST,3.0.7,60.11341911183733,
go,sst_images/Left_Arrow.bmp,None,1,1200,None,0,76,76,76,,1,1,0.4542207890044665,go,0.15000000000000002,1.2,2.2,014,Scanner,R,1,2019_Sep_08_1449,SST,3.0.7,60.11341911183733,
go,sst_images/Right_Arrow.bmp,None,2,746,None,0,77,77,77,,2,1,0.3710632370057283,go,0.15000000000000002,0.746,1.746,014,Scanner,R,1,2019_Sep_08_1449,SST,3.0.7,60.11341911183733,
go,sst_images/Right_Arrow.bmp,None,2,892,None,0,78,78,78,,2,1,0.7213429789990187,go,0.15000000000000002,0.892,1.892,014,Scanner,R,1,2019_Sep_08_1449,SST,3.0.7,60.11341911183733,
go,sst_images/Left_Arrow.bmp,None,1,858,None,0,79,79,79,,1,1,0.4380144780006958,go,0.15000000000000002,0.858,1.858,014,Scanner,R,1,2019_Sep_08_1449,SST,3.0.7,60.11341911183733,
stop,sst_images/Right_Arrow.bmp,sst_images/Stop_Arrow.bmp,none,895,None,0,80,80,80,,1,0,0.3822829810087569,stop,0.10000000000000002,0.895,1.962717018991243,014,Scanner,R,1,2019_Sep_08_1449,SST,3.0.7,60.11341911183733,
go,sst_images/Left_Arrow.bmp,None,1,740,None,0,81,81,81,,1,1,0.9033690120122628,go,0.10000000000000002,0.74,1.74,014,Scanner,R,1,2019_Sep_08_1449,SST,3.0.7,60.11341911183733,
go,sst_images/Right_Arrow.bmp,None,2,935,None,0,82,82,82,,2,1,0.3859474820055766,go,0.10000000000000002,0.935,1.935,014,Scanner,R,1,2019_Sep_08_1449,SST,3.0.7,60.11341911183733,
go,sst_images/Right_Arrow.bmp,None,2,1335,None,0,83,83,83,,2,1,0.40233319700928405,go,0.10000000000000002,1.335,2.335,014,Scanner,R,1,2019_Sep_08_1449,SST,3.0.7,60.11341911183733,
go,sst_images/Right_Arrow.bmp,None,2,919,None,0,84,84,84,,2,1,0.4508962959953351,go,0.10000000000000002,0.919,1.919,014,Scanner,R,1,2019_Sep_08_1449,SST,3.0.7,60.11341911183733,
go,sst_images/Left_Arrow.bmp,None,1,800,None,0,85,85,85,,1,1,0.3833418230060488,go,0.10000000000000002,0.8,1.8,014,Scanner,R,1,2019_Sep_08_1449,SST,3.0.7,60.11341911183733,
stop,sst_images/Right_Arrow.bmp,sst_images/Stop_Arrow.bmp,none,734,None,0,86,86,86,,None,1,,stop,0.15000000000000002,0.734,1.7340000000000002,014,Scanner,R,1,2019_Sep_08_1449,SST,3.0.7,60.11341911183733,
go,sst_images/Left_Arrow.bmp,None,1,714,None,0,87,87,87,,1,1,0.5114662049891194,go,0.15000000000000002,0.714,1.714,014,Scanner,R,1,2019_Sep_08_1449,SST,3.0.7,60.11341911183733,
go,sst_images/Right_Arrow.bmp,None,2,977,None,0,88,88,88,,None,0,,go,0.15000000000000002,0.977,1.9769999999999999,014,Scanner,R,1,2019_Sep_08_1449,SST,3.0.7,60.11341911183733,
go,sst_images/Left_Arrow.bmp,None,1,753,None,0,89,89,89,,1,1,0.4441752809943864,go,0.15000000000000002,0.753,1.7530000000000001,014,Scanner,R,1,2019_Sep_08_1449,SST,3.0.7,60.11341911183733,
go,sst_images/Right_Arrow.bmp,None,2,964,None,0,90,90,90,,2,1,0.3444615050102584,go,0.15000000000000002,0.964,1.964,014,Scanner,R,1,2019_Sep_08_1449,SST,3.0.7,60.11341911183733,
go,sst_images/Left_Arrow.bmp,None,1,1308,None,0,91,91,91,,1,1,0.45425039299880154,go,0.15000000000000002,1.308,2.308,014,Scanner,R,1,2019_Sep_08_1449,SST,3.0.7,60.11341911183733,
go,sst_images/Right_Arrow.bmp,None,2,812,None,0,92,92,92,,2,1,0.32763344899285585,go,0.15000000000000002,0.812,1.812,014,Scanner,R,1,2019_Sep_08_1449,SST,3.0.7,60.11341911183733,
go,sst_images/Left_Arrow.bmp,None,1,731,None,0,93,93,93,,1,1,0.36119692400097847,go,0.15000000000000002,0.731,1.7309999999999999,014,Scanner,R,1,2019_Sep_08_1449,SST,3.0.7,60.11341911183733,
go,sst_images/Left_Arrow.bmp,None,1,740,None,0,94,94,94,,1,1,0.6438538900110871,go,0.15000000000000002,0.74,1.74,014,Scanner,R,1,2019_Sep_08_1449,SST,3.0.7,60.11341911183733,
go,sst_images/Left_Arrow.bmp,None,1,979,None,0,95,95,95,,1,1,0.37730954599101096,go,0.15000000000000002,0.979,1.979,014,Scanner,R,1,2019_Sep_08_1449,SST,3.0.7,60.11341911183733,
go,sst_images/Right_Arrow.bmp,None,2,916,None,0,96,96,96,,2,1,0.3615602130012121,go,0.15000000000000002,0.916,1.916,014,Scanner,R,1,2019_Sep_08_1449,SST,3.0.7,60.11341911183733,
go,sst_images/Left_Arrow.bmp,None,1,1015,None,0,97,97,97,,1,1,0.44352121200063266,go,0.15000000000000002,1.015,2.0149999999999997,014,Scanner,R,1,2019_Sep_08_1449,SST,3.0.7,60.11341911183733,
go,sst_images/Right_Arrow.bmp,None,2,855,None,0,98,98,98,,2,1,0.32705717800126877,go,0.15000000000000002,0.855,1.855,014,Scanner,R,1,2019_Sep_08_1449,SST,3.0.7,60.11341911183733,
go,sst_images/Right_Arrow.bmp,None,2,802,None,0,99,99,99,,2,1,0.40272915599052794,go,0.15000000000000002,0.802,1.802,014,Scanner,R,1,2019_Sep_08_1449,SST,3.0.7,60.11341911183733,
go,sst_images/Left_Arrow.bmp,None,1,798,None,0,100,100,100,,1,1,0.3430146250029793,go,0.15000000000000002,0.798,1.798,014,Scanner,R,1,2019_Sep_08_1449,SST,3.0.7,60.11341911183733,
go,sst_images/Right_Arrow.bmp,None,2,961,None,0,101,101,101,,2,1,0.4023751659988193,go,0.15000000000000002,0.961,1.9609999999999999,014,Scanner,R,1,2019_Sep_08_1449,SST,3.0.7,60.11341911183733,
stop,sst_images/Left_Arrow.bmp,sst_images/Stop_Arrow.bmp,none,753,None,0,102,102,102,,1,0,0.35341440299816895,stop,0.10000000000000002,0.753,1.8495855970018311,014,Scanner,R,1,2019_Sep_08_1449,SST,3.0.7,60.11341911183733,
go,sst_images/Right_Arrow.bmp,None,2,1378,None,0,103,103,103,,2,1,0.643079140005284,go,0.10000000000000002,1.378,2.378,014,Scanner,R,1,2019_Sep_08_1449,SST,3.0.7,60.11341911183733,
go,sst_images/Left_Arrow.bmp,None,1,723,None,0,104,104,104,,1,1,0.39423771998554,go,0.10000000000000002,0.723,1.7229999999999999,014,Scanner,R,1,2019_Sep_08_1449,SST,3.0.7,60.11341911183733,
stop,sst_images/Left_Arrow.bmp,sst_images/Stop_Arrow.bmp,none,701,None,0,105,105,105,,1,0,0.3445449849969009,stop,0.05000000000000002,0.701,1.7564550150030993,014,Scanner,R,1,2019_Sep_08_1449,SST,3.0.7,60.11341911183733,
go,sst_images/Left_Arrow.bmp,None,1,1378,None,0,106,106,106,,1,1,0.3076889329968253,go,0.05000000000000002,1.378,2.378,014,Scanner,R,1,2019_Sep_08_1449,SST,3.0.7,60.11341911183733,
go,sst_images/Right_Arrow.bmp,None,2,1670,None,0,107,107,107,,2,1,0.44467760299448855,go,0.05000000000000002,1.67,2.67,014,Scanner,R,1,2019_Sep_08_1449,SST,3.0.7,60.11341911183733,
go,sst_images/Right_Arrow.bmp,None,2,836,None,0,108,108,108,,2,1,0.2916191300028004,go,0.05000000000000002,0.836,1.8359999999999999,014,Scanner,R,1,2019_Sep_08_1449,SST,3.0.7,60.11341911183733,
go,sst_images/Left_Arrow.bmp,None,1,809,None,0,109,109,109,,1,1,0.4766071789927082,go,0.05000000000000002,0.809,1.8090000000000002,014,Scanner,R,1,2019_Sep_08_1449,SST,3.0.7,60.11341911183733,
go,sst_images/Right_Arrow.bmp,None,2,828,None,0,110,110,110,,2,1,0.35743308799283113,go,0.05000000000000002,0.828,1.8279999999999998,014,Scanner,R,1,2019_Sep_08_1449,SST,3.0.7,60.11341911183733,
go,sst_images/Left_Arrow.bmp,None,1,825,None,0,111,111,111,,1,1,0.7395986849878682,go,0.05000000000000002,0.825,1.825,014,Scanner,R,1,2019_Sep_08_1449,SST,3.0.7,60.11341911183733,
go,sst_images/Right_Arrow.bmp,None,2,735,None,0,112,112,112,,2,1,0.755995419996907,go,0.05000000000000002,0.735,1.7349999999999999,014,Scanner,R,1,2019_Sep_08_1449,SST,3.0.7,60.11341911183733,
stop,sst_images/Right_Arrow.bmp,sst_images/Stop_Arrow.bmp,none,721,None,0,113,113,113,,None,1,,stop,0.10000000000000002,0.721,1.721,014,Scanner,R,1,2019_Sep_08_1449,SST,3.0.7,60.11341911183733,
go,sst_images/Left_Arrow.bmp,None,1,853,None,0,114,114,114,,1,1,0.341437473995029,go,0.10000000000000002,0.853,1.853,014,Scanner,R,1,2019_Sep_08_1449,SST,3.0.7,60.11341911183733,
go,sst_images/Right_Arrow.bmp,None,2,869,None,0,115,115,115,,2,1,0.6097871159872739,go,0.10000000000000002,0.869,1.869,014,Scanner,R,1,2019_Sep_08_1449,SST,3.0.7,60.11341911183733,
stop,sst_images/Left_Arrow.bmp,sst_images/Stop_Arrow.bmp,none,1088,None,0,116,116,116,,None,1,,stop,0.15000000000000002,1.088,2.088,014,Scanner,R,1,2019_Sep_08_1449,SST,3.0.7,60.11341911183733,
go,sst_images/Left_Arrow.bmp,None,1,767,None,0,117,117,117,,1,1,0.4430688599968562,go,0.15000000000000002,0.767,1.767,014,Scanner,R,1,2019_Sep_08_1449,SST,3.0.7,60.11341911183733,
go,sst_images/Right_Arrow.bmp,None,2,724,None,0,118,118,118,,2,1,0.4094111839949619,go,0.15000000000000002,0.724,1.724,014,Scanner,R,1,2019_Sep_08_1449,SST,3.0.7,60.11341911183733,
go,sst_images/Left_Arrow.bmp,None,1,1377,None,0,119,119,119,,1,1,0.3409945329913171,go,0.15000000000000002,1.377,2.377,014,Scanner,R,1,2019_Sep_08_1449,SST,3.0.7,60.11341911183733,
go,sst_images/Right_Arrow.bmp,None,2,817,None,0,120,120,120,,2,1,0.32550865100347437,go,0.15000000000000002,0.817,1.817,014,Scanner,R,1,2019_Sep_08_1449,SST,3.0.7,60.11341911183733,
stop,sst_images/Left_Arrow.bmp,sst_images/Stop_Arrow.bmp,none,1335,None,0,121,121,121,,1,0,0.35774119799316395,stop,0.10000000000000002,1.335,2.4272588020068357,014,Scanner,R,1,2019_Sep_08_1449,SST,3.0.7,60.11341911183733,
go,sst_images/Left_Arrow.bmp,None,1,1260,None,0,122,122,122,,1,1,0.42320349199872,go,0.10000000000000002,1.26,2.26,014,Scanner,R,1,2019_Sep_08_1449,SST,3.0.7,60.11341911183733,
go,sst_images/Right_Arrow.bmp,None,2,935,None,0,123,123,123,,2,1,0.4894591940101236,go,0.10000000000000002,0.935,1.935,014,Scanner,R,1,2019_Sep_08_1449,SST,3.0.7,60.11341911183733,
go,sst_images/Right_Arrow.bmp,None,2,989,None,0,124,124,124,,2,1,0.4725027889944613,go,0.10000000000000002,0.989,1.9889999999999999,014,Scanner,R,1,2019_Sep_08_1449,SST,3.0.7,60.11341911183733,
go,sst_images/Left_Arrow.bmp,None,1,853,None,0,125,125,125,,1,1,0.35411943700455595,go,0.10000000000000002,0.853,1.853,014,Scanner,R,1,2019_Sep_08_1449,SST,3.0.7,60.11341911183733,
stop,sst_images/Right_Arrow.bmp,sst_images/Stop_Arrow.bmp,none,763,None,0,126,126,126,,None,1,,stop,0.15000000000000002,0.763,1.7630000000000001,014,Scanner,R,1,2019_Sep_08_1449,SST,3.0.7,60.11341911183733,
go,sst_images/Left_Arrow.bmp,None,1,798,None,0,127,127,127,,1,1,0.5577103240066208,go,0.15000000000000002,0.798,1.798,014,Scanner,R,1,2019_Sep_08_1449,SST,3.0.7,60.11341911183733,
go,sst_images/Left_Arrow.bmp,None,1,719,None,0,128,128,128,,1,1,0.5381364350032527,go,0.15000000000000002,0.719,1.7189999999999999,014,Scanner,R,1,2019_Sep_08_1449,SST,3.0.7,60.11341911183733,
go,sst_images/Right_Arrow.bmp,None,2,763,None,0,129,129,129,,2,1,0.5378534439951181,go,0.15000000000000002,0.763,1.763,014,Scanner,R,1,2019_Sep_08_1449,SST,3.0.7,60.11341911183733,
go,sst_images/Left_Arrow.bmp,None,1,807,None,0,130,130,130,,1,1,0.33748539500811603,go,0.15000000000000002,0.807,1.807,014,Scanner,R,1,2019_Sep_08_1449,SST,3.0.7,60.11341911183733,
go,sst_images/Left_Arrow.bmp,None,1,787,None,0,131,131,131,,1,1,0.46967162600776646,go,0.15000000000000002,0.787,1.787,014,Scanner,R,1,2019_Sep_08_1449,SST,3.0.7,60.11341911183733,
go,sst_images/Left_Arrow.bmp,None,1,998,None,0,132,132,132,,1,1,0.37162236199947074,go,0.15000000000000002,0.998,1.998,014,Scanner,R,1,2019_Sep_08_1449,SST,3.0.7,60.11341911183733,
stop,sst_images/Left_Arrow.bmp,sst_images/Stop_Arrow.bmp,none,821,None,0,133,133,133,,None,1,,stop,0.2,0.821,1.821,014,Scanner,R,1,2019_Sep_08_1449,SST,3.0.7,60.11341911183733,
go,sst_images/Right_Arrow.bmp,None,2,828,None,0,134,134,134,,2,1,0.4555360710073728,go,0.2,0.828,1.8279999999999998,014,Scanner,R,1,2019_Sep_08_1449,SST,3.0.7,60.11341911183733,
go,sst_images/Left_Arrow.bmp,None,1,1151,None,0,135,135,135,,1,1,0.4526552780007478,go,0.2,1.151,2.151,014,Scanner,R,1,2019_Sep_08_1449,SST,3.0.7,60.11341911183733,
go,sst_images/Left_Arrow.bmp,None,1,1240,None,0,136,136,136,,1,1,0.47248924600717146,go,0.2,1.24,2.24,014,Scanner,R,1,2019_Sep_08_1449,SST,3.0.7,60.11341911183733,
stop,sst_images/Right_Arrow.bmp,sst_images/Stop_Arrow.bmp,none,755,None,0,137,137,137,,2,0,0.3851180710043991,stop,0.15000000000000002,0.755,1.8698819289956008,014,Scanner,R,1,2019_Sep_08_1449,SST,3.0.7,60.11341911183733,
go,sst_images/Right_Arrow.bmp,None,2,756,None,0,138,138,138,,2,1,0.4180663349980023,go,0.15000000000000002,0.756,1.756,014,Scanner,R,1,2019_Sep_08_1449,SST,3.0.7,60.11341911183733,
go,sst_images/Right_Arrow.bmp,None,2,717,None,0,139,139,139,,2,1,0.4047216320032021,go,0.15000000000000002,0.717,1.717,014,Scanner,R,1,2019_Sep_08_1449,SST,3.0.7,60.11341911183733,
go,sst_images/Left_Arrow.bmp,None,1,768,None,0,140,140,140,,1,1,0.6217229520116234,go,0.15000000000000002,0.768,1.768,014,Scanner,R,1,2019_Sep_08_1449,SST,3.0.7,60.11341911183733,
stop,sst_images/Right_Arrow.bmp,sst_images/Stop_Arrow.bmp,none,845,None,0,141,141,141,,None,1,,stop,0.2,0.845,1.845,014,Scanner,R,1,2019_Sep_08_1449,SST,3.0.7,60.11341911183733,
go,sst_images/Right_Arrow.bmp,None,2,802,None,0,142,142,142,,1,0,0.32201826199889183,go,0.2,0.802,1.802,014,Scanner,R,1,2019_Sep_08_1449,SST,3.0.7,60.11341911183733,
go,sst_images/Left_Arrow.bmp,None,1,755,None,0,143,143,143,,1,1,0.3370776149968151,go,0.2,0.755,1.755,014,Scanner,R,1,2019_Sep_08_1449,SST,3.0.7,60.11341911183733,
stop,sst_images/Left_Arrow.bmp,sst_images/Stop_Arrow.bmp,none,928,None,0,144,144,144,,1,0,0.4205533909989754,stop,0.15000000000000002,0.928,2.0074466090010246,014,Scanner,R,1,2019_Sep_08_1449,SST,3.0.7,60.11341911183733,
go,sst_images/Left_Arrow.bmp,None,1,918,None,0,145,145,145,,1,1,0.3365814270073315,go,0.15000000000000002,0.918,1.9180000000000001,014,Scanner,R,1,2019_Sep_08_1449,SST,3.0.7,60.11341911183733,
go,sst_images/Right_Arrow.bmp,None,2,806,None,0,146,146,146,,2,1,0.4220544050040189,go,0.15000000000000002,0.806,1.806,014,Scanner,R,1,2019_Sep_08_1449,SST,3.0.7,60.11341911183733,
stop,sst_images/Left_Arrow.bmp,sst_images/Stop_Arrow.bmp,none,935,None,0,147,147,147,,None,1,,stop,0.2,0.935,1.9349999999999998,014,Scanner,R,1,2019_Sep_08_1449,SST,3.0.7,60.11341911183733,
go,sst_images/Left_Arrow.bmp,None,1,733,None,0,148,148,148,,1,1,0.4679231019981671,go,0.2,0.733,1.733,014,Scanner,R,1,2019_Sep_08_1449,SST,3.0.7,60.11341911183733,
go,sst_images/Right_Arrow.bmp,None,2,866,None,0,149,149,149,,2,1,0.4550056610023603,go,0.2,0.866,1.866,014,Scanner,R,1,2019_Sep_08_1449,SST,3.0.7,60.11341911183733,
go,sst_images/Left_Arrow.bmp,None,1,799,None,0,150,150,150,,1,1,0.33567623600538354,go,0.2,0.799,1.799,014,Scanner,R,1,2019_Sep_08_1449,SST,3.0.7,60.11341911183733,
go,sst_images/Right_Arrow.bmp,None,2,777,None,0,151,151,151,,2,1,0.3686261779948836,go,0.2,0.777,1.7770000000000001,014,Scanner,R,1,2019_Sep_08_1449,SST,3.0.7,60.11341911183733,
go,sst_images/Right_Arrow.bmp,None,2,757,None,0,152,152,152,,2,1,0.38754612099728547,go,0.2,0.757,1.7570000000000001,014,Scanner,R,1,2019_Sep_08_1449,SST,3.0.7,60.11341911183733,
go,sst_images/Left_Arrow.bmp,None,1,821,None,0,153,153,153,,1,1,0.32149873999878764,go,0.2,0.821,1.821,014,Scanner,R,1,2019_Sep_08_1449,SST,3.0.7,60.11341911183733,
stop,sst_images/Left_Arrow.bmp,sst_images/Stop_Arrow.bmp,none,875,None,0,154,154,154,,None,1,,stop,0.25,0.875,1.875,014,Scanner,R,1,2019_Sep_08_1449,SST,3.0.7,60.11341911183733,
go,sst_images/Right_Arrow.bmp,None,2,798,None,0,155,155,155,,2,1,0.38747299399983604,go,0.25,0.798,1.798,014,Scanner,R,1,2019_Sep_08_1449,SST,3.0.7,60.11341911183733,
go,sst_images/Left_Arrow.bmp,None,1,766,None,0,156,156,156,,1,1,0.4877924949978478,go,0.25,0.766,1.766,014,Scanner,R,1,2019_Sep_08_1449,SST,3.0.7,60.11341911183733,
go,sst_images/Right_Arrow.bmp,None,2,1905,None,0,157,157,157,,2,1,0.6880908199964324,go,0.25,1.905,2.9050000000000002,014,Scanner,R,1,2019_Sep_08_1449,SST,3.0.7,60.11341911183733,
go,sst_images/Left_Arrow.bmp,None,1,1028,None,0,158,158,158,,1,1,0.3708516049955506,go,0.25,1.028,2.028,014,Scanner,R,1,2019_Sep_08_1449,SST,3.0.7,60.11341911183733,
go,sst_images/Right_Arrow.bmp,None,2,1093,None,0,159,159,159,,2,1,0.30521515500731766,go,0.25,1.093,2.093,014,Scanner,R,1,2019_Sep_08_1449,SST,3.0.7,60.11341911183733,
go,sst_images/Left_Arrow.bmp,None,1,718,None,0,160,160,160,,2,0,0.37082437898789067,go,0.25,0.718,1.718,014,Scanner,R,1,2019_Sep_08_1449,SST,3.0.7,60.11341911183733,
go,sst_images/Left_Arrow.bmp,None,1,934,None,0,161,161,161,,1,1,0.3867749530036235,go,0.25,0.934,1.9340000000000002,014,Scanner,R,1,2019_Sep_08_1449,SST,3.0.7,60.11341911183733,
go,sst_images/Right_Arrow.bmp,None,2,926,None,0,162,162,162,,2,1,0.3874005809921073,go,0.25,0.926,1.9260000000000002,014,Scanner,R,1,2019_Sep_08_1449,SST,3.0.7,60.11341911183733,
go,sst_images/Left_Arrow.bmp,None,1,802,None,0,163,163,163,,1,1,0.4025904600130161,go,0.25,0.802,1.802,014,Scanner,R,1,2019_Sep_08_1449,SST,3.0.7,60.11341911183733,
stop,sst_images/Right_Arrow.bmp,sst_images/Stop_Arrow.bmp,none,763,None,0,164,164,164,,2,0,0.4532567559945164,stop,0.2,0.763,1.8597432440054835,014,Scanner,R,1,2019_Sep_08_1449,SST,3.0.7,60.11341911183733,
go,sst_images/Right_Arrow.bmp,None,2,730,None,0,165,165,165,,2,1,0.6878563570062397,go,0.2,0.73,1.73,014,Scanner,R,1,2019_Sep_08_1449,SST,3.0.7,60.11341911183733,
go,sst_images/Right_Arrow.bmp,None,2,773,None,0,166,166,166,,None,0,,go,0.2,0.773,1.7730000000000001,014,Scanner,R,1,2019_Sep_08_1449,SST,3.0.7,60.11341911183733,
go,sst_images/Right_Arrow.bmp,None,2,727,None,0,167,167,167,,2,1,0.6869259720115224,go,0.2,0.727,1.7269999999999999,014,Scanner,R,1,2019_Sep_08_1449,SST,3.0.7,60.11341911183733,
go,sst_images/Left_Arrow.bmp,None,1,879,None,0,168,168,168,,1,1,0.48521578300278634,go,0.2,0.879,1.879,014,Scanner,R,1,2019_Sep_08_1449,SST,3.0.7,60.11341911183733,
go,sst_images/Right_Arrow.bmp,None,2,762,None,0,169,169,169,,2,1,0.3542888439988019,go,0.2,0.762,1.762,014,Scanner,R,1,2019_Sep_08_1449,SST,3.0.7,60.11341911183733,
go,sst_images/Right_Arrow.bmp,None,2,727,None,0,170,170,170,,2,1,0.5523273669969058,go,0.2,0.727,1.7269999999999999,014,Scanner,R,1,2019_Sep_08_1449,SST,3.0.7,60.11341911183733,
stop,sst_images/Left_Arrow.bmp,sst_images/Stop_Arrow.bmp,none,1240,None,0,171,171,171,,None,1,,stop,0.25,1.24,2.2399999999999998,014,Scanner,R,1,2019_Sep_08_1449,SST,3.0.7,60.11341911183733,
go,sst_images/Left_Arrow.bmp,None,1,954,None,0,172,172,172,,1,1,0.4198688049946213,go,0.25,0.954,1.954,014,Scanner,R,1,2019_Sep_08_1449,SST,3.0.7,60.11341911183733,
go,sst_images/Right_Arrow.bmp,None,2,779,None,0,173,173,173,,2,1,0.6384212459961418,go,0.25,0.779,1.779,014,Scanner,R,1,2019_Sep_08_1449,SST,3.0.7,60.11341911183733,
go,sst_images/Right_Arrow.bmp,None,2,870,None,0,174,174,174,,2,1,0.9045020990015473,go,0.25,0.87,1.87,014,Scanner,R,1,2019_Sep_08_1449,SST,3.0.7,60.11341911183733,
go,sst_images/Right_Arrow.bmp,None,2,978,None,0,175,175,175,,2,1,0.5198425249982392,go,0.25,0.978,1.978,014,Scanner,R,1,2019_Sep_08_1449,SST,3.0.7,60.11341911183733,
go,sst_images/Left_Arrow.bmp,None,1,859,None,0,176,176,176,,1,1,0.40403908300504554,go,0.25,0.859,1.859,014,Scanner,R,1,2019_Sep_08_1449,SST,3.0.7,60.11341911183733,
go,sst_images/Right_Arrow.bmp,None,2,728,None,0,177,177,177,,2,1,0.489873078011442,go,0.25,0.728,1.728,014,Scanner,R,1,2019_Sep_08_1449,SST,3.0.7,60.11341911183733,
go,sst_images/Left_Arrow.bmp,None,1,800,None,0,178,178,178,,1,1,0.4842250750079984,go,0.25,0.8,1.8,014,Scanner,R,1,2019_Sep_08_1449,SST,3.0.7,60.11341911183733,
go,sst_images/Right_Arrow.bmp,None,2,721,5648.0,0,179,179,179,,2,1,0.37196864499128424,go,0.25,0.721,1.721,014,Scanner,R,1,2019_Sep_08_1449,SST,3.0.7,60.11341911183733,
