trial_type,arrow_1,arrow_2,corrAns,jitter,run_end_fixation,trials.thisRepN,trials.thisTrialN,trials.thisN,trials.thisIndex,randomized TrialOrder,key_response.keys,key_response.corr,key_response.rt,trial_t.routineEndVal,ss_delay,iti_duration,SOA,participant,prac_or_scan,handedness,run,date,expName,psychopyVersion,frameRate,
go,sst_images/Left_Arrow.bmp,None,1,1057,None,0,0,0,0,11,1,1,0.8091089629888302,go,0.05,1.057,2.057,014,Scanner,R,2,2019_Sep_08_1456,SST,3.0.7,60.064310737113395,
go,sst_images/Right_Arrow.bmp,None,2,761,None,0,1,1,1,,2,1,0.3581352969922591,go,0.05,0.761,1.7610000000000001,014,Scanner,R,2,2019_Sep_08_1456,SST,3.0.7,60.064310737113395,
go,sst_images/Right_Arrow.bmp,None,2,1025,None,0,2,2,2,,2,1,0.40865703400049824,go,0.05,1.025,2.025,014,Scanner,R,2,2019_Sep_08_1456,SST,3.0.7,60.064310737113395,
go,sst_images/Left_Arrow.bmp,None,1,745,None,0,3,3,3,,1,1,0.3772910739935469,go,0.05,0.745,1.745,014,Scanner,R,2,2019_Sep_08_1456,SST,3.0.7,60.064310737113395,
go,sst_images/Left_Arrow.bmp,None,1,1362,None,0,4,4,4,,1,1,0.40509105900127906,go,0.05,1.362,2.362,014,Scanner,R,2,2019_Sep_08_1456,SST,3.0.7,60.064310737113395,
go,sst_images/Right_Arrow.bmp,None,2,804,None,0,5,5,5,,2,1,0.3599021940026432,go,0.05,0.804,1.804,014,Scanner,R,2,2019_Sep_08_1456,SST,3.0.7,60.064310737113395,
go,sst_images/Left_Arrow.bmp,None,1,821,None,0,6,6,6,,1,1,0.318325662999996,go,0.05,0.821,1.821,014,Scanner,R,2,2019_Sep_08_1456,SST,3.0.7,60.064310737113395,
stop,sst_images/Right_Arrow.bmp,sst_images/Stop_Arrow.bmp,none,1001,None,0,7,7,7,,None,1,,stop,0.1,1.001,2.001,014,Scanner,R,2,2019_Sep_08_1456,SST,3.0.7,60.064310737113395,
go,sst_images/Right_Arrow.bmp,None,2,1025,None,0,8,8,8,,2,1,0.6859795600030338,go,0.1,1.025,2.025,014,Scanner,R,2,2019_Sep_08_1456,SST,3.0.7,60.064310737113395,
go,sst_images/Right_Arrow.bmp,None,2,832,None,0,9,9,9,,2,1,0.4265670990134822,go,0.1,0.832,1.8319999999999999,014,Scanner,R,2,2019_Sep_08_1456,SST,3.0.7,60.064310737113395,
go,sst_images/Left_Arrow.bmp,None,1,773,None,0,10,10,10,,1,1,0.34074709599372,go,0.1,0.773,1.7730000000000001,014,Scanner,R,2,2019_Sep_08_1456,SST,3.0.7,60.064310737113395,
go,sst_images/Right_Arrow.bmp,None,2,1479,None,0,11,11,11,,2,1,0.3765888069901848,go,0.1,1.479,2.479,014,Scanner,R,2,2019_Sep_08_1456,SST,3.0.7,60.064310737113395,
go,sst_images/Left_Arrow.bmp,None,1,801,None,0,12,12,12,,1,1,0.3247220860066591,go,0.1,0.801,1.8010000000000002,014,Scanner,R,2,2019_Sep_08_1456,SST,3.0.7,60.064310737113395,
go,sst_images/Left_Arrow.bmp,None,1,789,None,0,13,13,13,,1,1,0.4415048680093605,go,0.1,0.789,1.7890000000000001,014,Scanner,R,2,2019_Sep_08_1456,SST,3.0.7,60.064310737113395,
go,sst_images/Left_Arrow.bmp,None,1,766,None,0,14,14,14,,1,1,0.924750847989344,go,0.1,0.766,1.766,014,Scanner,R,2,2019_Sep_08_1456,SST,3.0.7,60.064310737113395,
go,sst_images/Right_Arrow.bmp,None,2,891,None,0,15,15,15,,2,1,0.806756090009003,go,0.1,0.891,1.891,014,Scanner,R,2,2019_Sep_08_1456,SST,3.0.7,60.064310737113395,
go,sst_images/Left_Arrow.bmp,None,1,868,None,0,16,16,16,,1,1,0.7066091800079448,go,0.1,0.868,1.8679999999999999,014,Scanner,R,2,2019_Sep_08_1456,SST,3.0.7,60.064310737113395,
go,sst_images/Left_Arrow.bmp,None,1,1445,None,0,17,17,17,,1,1,0.3899823699903209,go,0.1,1.445,2.4450000000000003,014,Scanner,R,2,2019_Sep_08_1456,SST,3.0.7,60.064310737113395,
go,sst_images/Right_Arrow.bmp,None,2,1033,None,0,18,18,18,,2,1,0.3848764940048568,go,0.1,1.033,2.033,014,Scanner,R,2,2019_Sep_08_1456,SST,3.0.7,60.064310737113395,
go,sst_images/Left_Arrow.bmp,None,1,1103,None,0,19,19,19,,1,1,0.3561855239968281,go,0.1,1.103,2.1029999999999998,014,Scanner,R,2,2019_Sep_08_1456,SST,3.0.7,60.064310737113395,
go,sst_images/Right_Arrow.bmp,None,2,808,None,0,20,20,20,,2,1,0.33810361399082467,go,0.1,0.808,1.808,014,Scanner,R,2,2019_Sep_08_1456,SST,3.0.7,60.064310737113395,
go,sst_images/Left_Arrow.bmp,None,1,1401,None,0,21,21,21,,1,1,0.740743096001097,go,0.1,1.401,2.401,014,Scanner,R,2,2019_Sep_08_1456,SST,3.0.7,60.064310737113395,
go,sst_images/Right_Arrow.bmp,None,2,834,None,0,22,22,22,,2,1,0.6379402119928272,go,0.1,0.834,1.834,014,Scanner,R,2,2019_Sep_08_1456,SST,3.0.7,60.064310737113395,
go,sst_images/Right_Arrow.bmp,None,2,1551,None,0,23,23,23,,2,1,0.7207197039970197,go,0.1,1.551,2.551,014,Scanner,R,2,2019_Sep_08_1456,SST,3.0.7,60.064310737113395,
go,sst_images/Left_Arrow.bmp,None,1,770,None,0,24,24,24,,1,1,0.35458065099373925,go,0.1,0.77,1.77,014,Scanner,R,2,2019_Sep_08_1456,SST,3.0.7,60.064310737113395,
stop,sst_images/Left_Arrow.bmp,sst_images/Stop_Arrow.bmp,none,801,None,0,25,25,25,,None,1,,stop,0.15000000000000002,0.801,1.8010000000000002,014,Scanner,R,2,2019_Sep_08_1456,SST,3.0.7,60.064310737113395,
go,sst_images/Right_Arrow.bmp,None,2,810,None,0,26,26,26,,2,1,0.3702877680043457,go,0.15000000000000002,0.81,1.81,014,Scanner,R,2,2019_Sep_08_1456,SST,3.0.7,60.064310737113395,
go,sst_images/Right_Arrow.bmp,None,2,783,None,0,27,27,27,,2,1,0.40901382800075226,go,0.15000000000000002,0.783,1.783,014,Scanner,R,2,2019_Sep_08_1456,SST,3.0.7,60.064310737113395,
go,sst_images/Left_Arrow.bmp,None,1,1008,None,0,28,28,28,,1,1,0.3711804119957378,go,0.15000000000000002,1.008,2.008,014,Scanner,R,2,2019_Sep_08_1456,SST,3.0.7,60.064310737113395,
stop,sst_images/Left_Arrow.bmp,sst_images/Stop_Arrow.bmp,none,725,None,0,29,29,29,,1,0,0.3863881930010393,stop,0.10000000000000002,0.725,1.7886118069989607,014,Scanner,R,2,2019_Sep_08_1456,SST,3.0.7,60.064310737113395,
go,sst_images/Right_Arrow.bmp,None,2,737,None,0,30,30,30,,2,1,0.2867342380050104,go,0.10000000000000002,0.737,1.737,014,Scanner,R,2,2019_Sep_08_1456,SST,3.0.7,60.064310737113395,
go,sst_images/Left_Arrow.bmp,None,1,826,None,0,31,31,31,,1,1,0.3869802920089569,go,0.10000000000000002,0.826,1.826,014,Scanner,R,2,2019_Sep_08_1456,SST,3.0.7,60.064310737113395,
stop,sst_images/Right_Arrow.bmp,sst_images/Stop_Arrow.bmp,none,717,None,0,32,32,32,,None,1,,stop,0.15000000000000002,0.717,1.717,014,Scanner,R,2,2019_Sep_08_1456,SST,3.0.7,60.064310737113395,
go,sst_images/Left_Arrow.bmp,None,1,812,None,0,33,33,33,,1,1,0.37024928600294515,go,0.15000000000000002,0.812,1.812,014,Scanner,R,2,2019_Sep_08_1456,SST,3.0.7,60.064310737113395,
go,sst_images/Right_Arrow.bmp,None,2,768,None,0,34,34,34,,2,1,0.6741066530084936,go,0.15000000000000002,0.768,1.768,014,Scanner,R,2,2019_Sep_08_1456,SST,3.0.7,60.064310737113395,
go,sst_images/Right_Arrow.bmp,None,2,957,None,0,35,35,35,,2,1,0.6549280130129773,go,0.15000000000000002,0.957,1.9569999999999999,014,Scanner,R,2,2019_Sep_08_1456,SST,3.0.7,60.064310737113395,
go,sst_images/Left_Arrow.bmp,None,1,812,None,0,36,36,36,,1,1,0.773915476995171,go,0.15000000000000002,0.812,1.812,014,Scanner,R,2,2019_Sep_08_1456,SST,3.0.7,60.064310737113395,
stop,sst_images/Right_Arrow.bmp,sst_images/Stop_Arrow.bmp,none,727,None,0,37,37,37,,None,1,,stop,0.2,0.727,1.727,014,Scanner,R,2,2019_Sep_08_1456,SST,3.0.7,60.064310737113395,
go,sst_images/Left_Arrow.bmp,None,1,818,None,0,38,38,38,,1,1,0.5038195350061869,go,0.2,0.818,1.818,014,Scanner,R,2,2019_Sep_08_1456,SST,3.0.7,60.064310737113395,
go,sst_images/Right_Arrow.bmp,None,2,746,None,0,39,39,39,,2,1,0.7394565709982999,go,0.2,0.746,1.746,014,Scanner,R,2,2019_Sep_08_1456,SST,3.0.7,60.064310737113395,
go,sst_images/Left_Arrow.bmp,None,1,834,None,0,40,40,40,,1,1,0.5721634920046199,go,0.2,0.834,1.834,014,Scanner,R,2,2019_Sep_08_1456,SST,3.0.7,60.064310737113395,
go,sst_images/Left_Arrow.bmp,None,1,1211,None,0,41,41,41,,1,1,0.37111860599543434,go,0.2,1.211,2.2110000000000003,014,Scanner,R,2,2019_Sep_08_1456,SST,3.0.7,60.064310737113395,
stop,sst_images/Left_Arrow.bmp,sst_images/Stop_Arrow.bmp,none,811,None,0,42,42,42,,1,0,0.3533028959936928,stop,0.15000000000000002,0.811,1.9576971040063071,014,Scanner,R,2,2019_Sep_08_1456,SST,3.0.7,60.064310737113395,
go,sst_images/Right_Arrow.bmp,None,2,776,None,0,43,43,43,,2,1,0.33695310199982487,go,0.15000000000000002,0.776,1.776,014,Scanner,R,2,2019_Sep_08_1456,SST,3.0.7,60.064310737113395,
go,sst_images/Right_Arrow.bmp,None,2,962,None,0,44,44,44,,2,1,0.42174052700283937,go,0.15000000000000002,0.962,1.962,014,Scanner,R,2,2019_Sep_08_1456,SST,3.0.7,60.064310737113395,
go,sst_images/Right_Arrow.bmp,None,2,871,None,0,45,45,45,,2,1,0.40598015299474355,go,0.15000000000000002,0.871,1.871,014,Scanner,R,2,2019_Sep_08_1456,SST,3.0.7,60.064310737113395,
go,sst_images/Left_Arrow.bmp,None,1,820,None,0,46,46,46,,1,1,0.5873044489999302,go,0.15000000000000002,0.82,1.8199999999999998,014,Scanner,R,2,2019_Sep_08_1456,SST,3.0.7,60.064310737113395,
go,sst_images/Left_Arrow.bmp,None,1,706,None,0,47,47,47,,1,1,0.38833021200844087,go,0.15000000000000002,0.706,1.706,014,Scanner,R,2,2019_Sep_08_1456,SST,3.0.7,60.064310737113395,
go,sst_images/Left_Arrow.bmp,None,1,970,None,0,48,48,48,,1,1,0.33688000999973156,go,0.15000000000000002,0.97,1.97,014,Scanner,R,2,2019_Sep_08_1456,SST,3.0.7,60.064310737113395,
go,sst_images/Right_Arrow.bmp,None,2,1184,None,0,49,49,49,,2,1,0.5698110289959004,go,0.15000000000000002,1.184,2.184,014,Scanner,R,2,2019_Sep_08_1456,SST,3.0.7,60.064310737113395,
go,sst_images/Right_Arrow.bmp,None,2,731,None,0,50,50,50,,2,1,0.3530294980009785,go,0.15000000000000002,0.731,1.7309999999999999,014,Scanner,R,2,2019_Sep_08_1456,SST,3.0.7,60.064310737113395,
go,sst_images/Left_Arrow.bmp,None,1,715,None,0,51,51,51,,1,1,0.33629869599826634,go,0.15000000000000002,0.715,1.7149999999999999,014,Scanner,R,2,2019_Sep_08_1456,SST,3.0.7,60.064310737113395,
go,sst_images/Left_Arrow.bmp,None,1,748,None,0,52,52,52,,1,1,0.41923736600438133,go,0.15000000000000002,0.748,1.748,014,Scanner,R,2,2019_Sep_08_1456,SST,3.0.7,60.064310737113395,
stop,sst_images/Right_Arrow.bmp,sst_images/Stop_Arrow.bmp,none,808,None,0,53,53,53,,2,0,0.30261433799751103,stop,0.10000000000000002,0.808,1.9553856620024892,014,Scanner,R,2,2019_Sep_08_1456,SST,3.0.7,60.064310737113395,
go,sst_images/Left_Arrow.bmp,None,1,765,None,0,54,54,54,,1,1,0.4539100620022509,go,0.10000000000000002,0.765,1.7650000000000001,014,Scanner,R,2,2019_Sep_08_1456,SST,3.0.7,60.064310737113395,
go,sst_images/Right_Arrow.bmp,None,2,871,None,0,55,55,55,,2,1,0.3532834659999935,go,0.10000000000000002,0.871,1.871,014,Scanner,R,2,2019_Sep_08_1456,SST,3.0.7,60.064310737113395,
go,sst_images/Left_Arrow.bmp,None,1,730,None,0,56,56,56,,1,1,0.3510376499907579,go,0.10000000000000002,0.73,1.73,014,Scanner,R,2,2019_Sep_08_1456,SST,3.0.7,60.064310737113395,
stop,sst_images/Right_Arrow.bmp,sst_images/Stop_Arrow.bmp,none,766,None,0,57,57,57,,2,0,0.3697973970120074,stop,0.05000000000000002,0.766,1.7962026029879927,014,Scanner,R,2,2019_Sep_08_1456,SST,3.0.7,60.064310737113395,
go,sst_images/Left_Arrow.bmp,None,1,839,None,0,58,58,58,,1,1,0.30178774800151587,go,0.05000000000000002,0.839,1.839,014,Scanner,R,2,2019_Sep_08_1456,SST,3.0.7,60.064310737113395,
go,sst_images/Right_Arrow.bmp,None,2,842,None,0,59,59,59,,2,1,0.38814182998612523,go,0.05000000000000002,0.842,1.842,014,Scanner,R,2,2019_Sep_08_1456,SST,3.0.7,60.064310737113395,
go,sst_images/Right_Arrow.bmp,None,2,721,None,0,60,60,60,,2,1,0.5717831650108565,go,0.05000000000000002,0.721,1.721,014,Scanner,R,2,2019_Sep_08_1456,SST,3.0.7,60.064310737113395,
stop,sst_images/Left_Arrow.bmp,sst_images/Stop_Arrow.bmp,none,746,None,0,61,61,61,,1,0,0.3542193600005703,stop,1.3877787807814457e-17,0.746,1.7417806399994298,014,Scanner,R,2,2019_Sep_08_1456,SST,3.0.7,60.064310737113395,
go,sst_images/Left_Arrow.bmp,None,1,710,None,0,62,62,62,,1,1,0.3195415499940282,go,1.3877787807814457e-17,0.71,1.71,014,Scanner,R,2,2019_Sep_08_1456,SST,3.0.7,60.064310737113395,
go,sst_images/Right_Arrow.bmp,None,2,864,None,0,63,63,63,,2,1,0.36972719100594986,go,1.3877787807814457e-17,0.864,1.8639999999999999,014,Scanner,R,2,2019_Sep_08_1456,SST,3.0.7,60.064310737113395,
go,sst_images/Left_Arrow.bmp,None,1,804,None,0,64,64,64,,1,1,0.38780096200935077,go,1.3877787807814457e-17,0.804,1.804,014,Scanner,R,2,2019_Sep_08_1456,SST,3.0.7,60.064310737113395,
stop,sst_images/Right_Arrow.bmp,sst_images/Stop_Arrow.bmp,none,1179,None,0,65,65,65,,None,1,,stop,0.05000000000000002,1.179,2.179,014,Scanner,R,2,2019_Sep_08_1456,SST,3.0.7,60.064310737113395,
go,sst_images/Right_Arrow.bmp,None,2,713,None,0,66,66,66,,2,1,0.4209325669944519,go,0.05000000000000002,0.713,1.713,014,Scanner,R,2,2019_Sep_08_1456,SST,3.0.7,60.064310737113395,
go,sst_images/Right_Arrow.bmp,None,2,842,None,0,67,67,67,,2,1,0.3862190600048052,go,0.05000000000000002,0.842,1.842,014,Scanner,R,2,2019_Sep_08_1456,SST,3.0.7,60.064310737113395,
go,sst_images/Left_Arrow.bmp,None,1,738,None,0,68,68,68,,1,1,0.4201359060098184,go,0.05000000000000002,0.738,1.738,014,Scanner,R,2,2019_Sep_08_1456,SST,3.0.7,60.064310737113395,
go,sst_images/Right_Arrow.bmp,None,2,765,None,0,69,69,69,,2,1,0.5657302519975929,go,0.05000000000000002,0.765,1.7650000000000001,014,Scanner,R,2,2019_Sep_08_1456,SST,3.0.7,60.064310737113395,
stop,sst_images/Left_Arrow.bmp,sst_images/Stop_Arrow.bmp,none,1224,None,0,70,70,70,,None,1,,stop,0.10000000000000002,1.224,2.2239999999999998,014,Scanner,R,2,2019_Sep_08_1456,SST,3.0.7,60.064310737113395,
go,sst_images/Left_Arrow.bmp,None,1,1160,None,0,71,71,71,,1,1,0.48558852401038166,go,0.10000000000000002,1.16,2.16,014,Scanner,R,2,2019_Sep_08_1456,SST,3.0.7,60.064310737113395,
go,sst_images/Right_Arrow.bmp,None,2,715,None,0,72,72,72,,2,1,0.3539091379934689,go,0.10000000000000002,0.715,1.7149999999999999,014,Scanner,R,2,2019_Sep_08_1456,SST,3.0.7,60.064310737113395,
go,sst_images/Left_Arrow.bmp,None,1,1355,None,0,73,73,73,,1,1,0.33801885999855585,go,0.10000000000000002,1.355,2.355,014,Scanner,R,2,2019_Sep_08_1456,SST,3.0.7,60.064310737113395,
go,sst_images/Right_Arrow.bmp,None,2,708,None,0,74,74,74,,2,1,0.47126702300738543,go,0.10000000000000002,0.708,1.708,014,Scanner,R,2,2019_Sep_08_1456,SST,3.0.7,60.064310737113395,
stop,sst_images/Right_Arrow.bmp,sst_images/Stop_Arrow.bmp,none,789,None,0,75,75,75,,None,1,,stop,0.15000000000000002,0.789,1.7890000000000001,014,Scanner,R,2,2019_Sep_08_1456,SST,3.0.7,60.064310737113395,
go,sst_images/Right_Arrow.bmp,None,2,972,None,0,76,76,76,,2,1,0.38857159699546173,go,0.15000000000000002,0.972,1.972,014,Scanner,R,2,2019_Sep_08_1456,SST,3.0.7,60.064310737113395,
go,sst_images/Left_Arrow.bmp,None,1,988,None,0,77,77,77,,1,1,0.37195221899310127,go,0.15000000000000002,0.988,1.988,014,Scanner,R,2,2019_Sep_08_1456,SST,3.0.7,60.064310737113395,
go,sst_images/Left_Arrow.bmp,None,1,1016,None,0,78,78,78,,1,1,0.47104105399921536,go,0.15000000000000002,1.016,2.016,014,Scanner,R,2,2019_Sep_08_1456,SST,3.0.7,60.064310737113395,
go,sst_images/Right_Arrow.bmp,None,2,817,None,0,79,79,79,,2,1,0.3702417499880539,go,0.15000000000000002,0.817,1.817,014,Scanner,R,2,2019_Sep_08_1456,SST,3.0.7,60.064310737113395,
go,sst_images/Right_Arrow.bmp,None,2,1079,None,0,80,80,80,,2,1,0.5384498519997578,go,0.15000000000000002,1.079,2.0789999999999997,014,Scanner,R,2,2019_Sep_08_1456,SST,3.0.7,60.064310737113395,
stop,sst_images/Right_Arrow.bmp,sst_images/Stop_Arrow.bmp,none,1042,None,0,81,81,81,,2,0,0.4053123039921047,stop,0.10000000000000002,1.042,2.0866876960078953,014,Scanner,R,2,2019_Sep_08_1456,SST,3.0.7,60.064310737113395,
go,sst_images/Right_Arrow.bmp,None,2,1224,None,0,82,82,82,,2,1,0.4190696830046363,go,0.10000000000000002,1.224,2.224,014,Scanner,R,2,2019_Sep_08_1456,SST,3.0.7,60.064310737113395,
go,sst_images/Left_Arrow.bmp,None,1,1139,None,0,83,83,83,,1,1,0.4050194650044432,go,0.10000000000000002,1.139,2.1390000000000002,014,Scanner,R,2,2019_Sep_08_1456,SST,3.0.7,60.064310737113395,
go,sst_images/Left_Arrow.bmp,None,1,830,None,0,84,84,84,,1,1,0.45534165599383414,go,0.10000000000000002,0.83,1.83,014,Scanner,R,2,2019_Sep_08_1456,SST,3.0.7,60.064310737113395,
go,sst_images/Right_Arrow.bmp,None,2,736,None,0,85,85,85,,2,1,0.42074166699603666,go,0.10000000000000002,0.736,1.736,014,Scanner,R,2,2019_Sep_08_1456,SST,3.0.7,60.064310737113395,
go,sst_images/Left_Arrow.bmp,None,1,877,None,0,86,86,86,,1,1,0.5457934340083739,go,0.10000000000000002,0.877,1.877,014,Scanner,R,2,2019_Sep_08_1456,SST,3.0.7,60.064310737113395,
go,sst_images/Right_Arrow.bmp,None,2,737,None,0,87,87,87,,2,1,0.3478989220020594,go,0.10000000000000002,0.737,1.737,014,Scanner,R,2,2019_Sep_08_1456,SST,3.0.7,60.064310737113395,
stop,sst_images/Left_Arrow.bmp,sst_images/Stop_Arrow.bmp,none,900,None,0,88,88,88,,None,1,,stop,0.15000000000000002,0.9,1.9000000000000001,014,Scanner,R,2,2019_Sep_08_1456,SST,3.0.7,60.064310737113395,
go,sst_images/Left_Arrow.bmp,None,1,1427,None,0,89,89,89,,1,1,0.3533588450081879,go,0.15000000000000002,1.427,2.427,014,Scanner,R,2,2019_Sep_08_1456,SST,3.0.7,60.064310737113395,
go,sst_images/Right_Arrow.bmp,None,2,807,None,0,90,90,90,,2,1,0.3549421760108089,go,0.15000000000000002,0.807,1.807,014,Scanner,R,2,2019_Sep_08_1456,SST,3.0.7,60.064310737113395,
go,sst_images/Left_Arrow.bmp,None,1,864,None,0,91,91,91,,1,1,0.3713820639968617,go,0.15000000000000002,0.864,1.8639999999999999,014,Scanner,R,2,2019_Sep_08_1456,SST,3.0.7,60.064310737113395,
go,sst_images/Left_Arrow.bmp,None,1,751,None,0,92,92,92,,1,1,0.48497864200908225,go,0.15000000000000002,0.751,1.751,014,Scanner,R,2,2019_Sep_08_1456,SST,3.0.7,60.064310737113395,
stop,sst_images/Right_Arrow.bmp,sst_images/Stop_Arrow.bmp,none,781,None,0,93,93,93,,None,1,,stop,0.2,0.781,1.781,014,Scanner,R,2,2019_Sep_08_1456,SST,3.0.7,60.064310737113395,
go,sst_images/Left_Arrow.bmp,None,1,759,None,0,94,94,94,,1,1,0.33616114300093614,go,0.2,0.759,1.759,014,Scanner,R,2,2019_Sep_08_1456,SST,3.0.7,60.064310737113395,
go,sst_images/Right_Arrow.bmp,None,2,885,None,0,95,95,95,,2,1,0.4191661000077147,go,0.2,0.885,1.885,014,Scanner,R,2,2019_Sep_08_1456,SST,3.0.7,60.064310737113395,
go,sst_images/Left_Arrow.bmp,None,1,941,None,0,96,96,96,,1,1,0.336672698991606,go,0.2,0.941,1.9409999999999998,014,Scanner,R,2,2019_Sep_08_1456,SST,3.0.7,60.064310737113395,
go,sst_images/Right_Arrow.bmp,None,2,1090,None,0,97,97,97,,2,1,0.4213026690122206,go,0.2,1.09,2.09,014,Scanner,R,2,2019_Sep_08_1456,SST,3.0.7,60.064310737113395,
go,sst_images/Right_Arrow.bmp,None,2,948,None,0,98,98,98,,2,1,0.5202565670042532,go,0.2,0.948,1.948,014,Scanner,R,2,2019_Sep_08_1456,SST,3.0.7,60.064310737113395,
go,sst_images/Left_Arrow.bmp,None,1,856,None,0,99,99,99,,1,1,0.48792179200972896,go,0.2,0.856,1.8559999999999999,014,Scanner,R,2,2019_Sep_08_1456,SST,3.0.7,60.064310737113395,
go,sst_images/Right_Arrow.bmp,None,2,957,None,0,100,100,100,,2,1,0.40206433400453534,go,0.2,0.957,1.9569999999999999,014,Scanner,R,2,2019_Sep_08_1456,SST,3.0.7,60.064310737113395,
go,sst_images/Right_Arrow.bmp,None,2,1100,None,0,101,101,101,,2,1,0.403269361006096,go,0.2,1.1,2.1,014,Scanner,R,2,2019_Sep_08_1456,SST,3.0.7,60.064310737113395,
go,sst_images/Left_Arrow.bmp,None,1,799,None,0,102,102,102,,1,1,0.35433725599432364,go,0.2,0.799,1.799,014,Scanner,R,2,2019_Sep_08_1456,SST,3.0.7,60.064310737113395,
go,sst_images/Left_Arrow.bmp,None,1,842,None,0,103,103,103,,1,1,0.4026524060027441,go,0.2,0.842,1.842,014,Scanner,R,2,2019_Sep_08_1456,SST,3.0.7,60.064310737113395,
stop,sst_images/Right_Arrow.bmp,sst_images/Stop_Arrow.bmp,none,904,None,0,104,104,104,,2,0,0.4549087400082499,stop,0.15000000000000002,0.904,1.94909125999175,014,Scanner,R,2,2019_Sep_08_1456,SST,3.0.7,60.064310737113395,
go,sst_images/Right_Arrow.bmp,None,2,900,None,0,105,105,105,,2,1,0.5277905060065677,go,0.15000000000000002,0.9,1.9,014,Scanner,R,2,2019_Sep_08_1456,SST,3.0.7,60.064310737113395,
go,sst_images/Right_Arrow.bmp,None,2,798,None,0,106,106,106,,2,1,0.7211661720066331,go,0.15000000000000002,0.798,1.798,014,Scanner,R,2,2019_Sep_08_1456,SST,3.0.7,60.064310737113395,
go,sst_images/Left_Arrow.bmp,None,1,1028,None,0,107,107,107,,1,1,0.46770615798595827,go,0.15000000000000002,1.028,2.028,014,Scanner,R,2,2019_Sep_08_1456,SST,3.0.7,60.064310737113395,
go,sst_images/Right_Arrow.bmp,None,2,1006,None,0,108,108,108,,2,1,0.4608740730036516,go,0.15000000000000002,1.006,2.0060000000000002,014,Scanner,R,2,2019_Sep_08_1456,SST,3.0.7,60.064310737113395,
go,sst_images/Left_Arrow.bmp,None,1,881,None,0,109,109,109,,1,1,0.4431321809970541,go,0.15000000000000002,0.881,1.881,014,Scanner,R,2,2019_Sep_08_1456,SST,3.0.7,60.064310737113395,
go,sst_images/Right_Arrow.bmp,None,2,774,None,0,110,110,110,,2,1,0.4117866070009768,go,0.15000000000000002,0.774,1.774,014,Scanner,R,2,2019_Sep_08_1456,SST,3.0.7,60.064310737113395,
go,sst_images/Left_Arrow.bmp,None,1,827,None,0,111,111,111,,1,1,0.47221670400176663,go,0.15000000000000002,0.827,1.827,014,Scanner,R,2,2019_Sep_08_1456,SST,3.0.7,60.064310737113395,
go,sst_images/Right_Arrow.bmp,None,2,746,None,0,112,112,112,,2,1,0.4528331779874861,go,0.15000000000000002,0.746,1.746,014,Scanner,R,2,2019_Sep_08_1456,SST,3.0.7,60.064310737113395,
stop,sst_images/Left_Arrow.bmp,sst_images/Stop_Arrow.bmp,none,768,None,0,113,113,113,,1,0,0.4043866730062291,stop,0.10000000000000002,0.768,1.813613326993771,014,Scanner,R,2,2019_Sep_08_1456,SST,3.0.7,60.064310737113395,
go,sst_images/Left_Arrow.bmp,None,1,745,None,0,114,114,114,,1,1,0.4195600950042717,go,0.10000000000000002,0.745,1.745,014,Scanner,R,2,2019_Sep_08_1456,SST,3.0.7,60.064310737113395,
go,sst_images/Right_Arrow.bmp,None,2,1831,None,0,115,115,115,,2,1,0.5622129080002196,go,0.10000000000000002,1.831,2.831,014,Scanner,R,2,2019_Sep_08_1456,SST,3.0.7,60.064310737113395,
go,sst_images/Left_Arrow.bmp,None,1,981,None,0,116,116,116,,1,1,0.44223700399743393,go,0.10000000000000002,0.981,1.9809999999999999,014,Scanner,R,2,2019_Sep_08_1456,SST,3.0.7,60.064310737113395,
go,sst_images/Right_Arrow.bmp,None,2,778,None,0,117,117,117,,2,1,0.6618657799990615,go,0.10000000000000002,0.778,1.778,014,Scanner,R,2,2019_Sep_08_1456,SST,3.0.7,60.064310737113395,
go,sst_images/Left_Arrow.bmp,None,1,1337,None,0,118,118,118,,1,1,0.4940371709963074,go,0.10000000000000002,1.337,2.3369999999999997,014,Scanner,R,2,2019_Sep_08_1456,SST,3.0.7,60.064310737113395,
stop,sst_images/Left_Arrow.bmp,sst_images/Stop_Arrow.bmp,none,861,None,0,119,119,119,,1,0,0.37706571200396866,stop,0.05000000000000002,0.861,1.8839342879960315,014,Scanner,R,2,2019_Sep_08_1456,SST,3.0.7,60.064310737113395,
go,sst_images/Right_Arrow.bmp,None,2,988,None,0,120,120,120,,2,1,0.4099041879962897,go,0.05000000000000002,0.988,1.988,014,Scanner,R,2,2019_Sep_08_1456,SST,3.0.7,60.064310737113395,
go,sst_images/Right_Arrow.bmp,None,2,757,None,0,121,121,121,,2,1,0.5195341650105547,go,0.05000000000000002,0.757,1.7570000000000001,014,Scanner,R,2,2019_Sep_08_1456,SST,3.0.7,60.064310737113395,
stop,sst_images/Right_Arrow.bmp,sst_images/Stop_Arrow.bmp,none,842,None,0,122,122,122,,None,1,,stop,0.10000000000000002,0.842,1.842,014,Scanner,R,2,2019_Sep_08_1456,SST,3.0.7,60.064310737113395,
go,sst_images/Left_Arrow.bmp,None,1,730,None,0,123,123,123,,1,1,0.3448894679895602,go,0.10000000000000002,0.73,1.73,014,Scanner,R,2,2019_Sep_08_1456,SST,3.0.7,60.064310737113395,
go,sst_images/Left_Arrow.bmp,None,1,747,None,0,124,124,124,,1,1,0.3770696690044133,go,0.10000000000000002,0.747,1.7469999999999999,014,Scanner,R,2,2019_Sep_08_1456,SST,3.0.7,60.064310737113395,
go,sst_images/Left_Arrow.bmp,None,1,948,None,0,125,125,125,,1,1,0.47838038300687913,go,0.10000000000000002,0.948,1.948,014,Scanner,R,2,2019_Sep_08_1456,SST,3.0.7,60.064310737113395,
go,sst_images/Right_Arrow.bmp,None,2,867,None,0,126,126,126,,2,1,0.3880899359937757,go,0.10000000000000002,0.867,1.867,014,Scanner,R,2,2019_Sep_08_1456,SST,3.0.7,60.064310737113395,
go,sst_images/Left_Arrow.bmp,None,1,979,None,0,127,127,127,,1,1,0.34185926799545996,go,0.10000000000000002,0.979,1.979,014,Scanner,R,2,2019_Sep_08_1456,SST,3.0.7,60.064310737113395,
stop,sst_images/Left_Arrow.bmp,sst_images/Stop_Arrow.bmp,none,812,None,0,128,128,128,,None,1,,stop,0.15000000000000002,0.812,1.812,014,Scanner,R,2,2019_Sep_08_1456,SST,3.0.7,60.064310737113395,
go,sst_images/Left_Arrow.bmp,None,1,997,None,0,129,129,129,,1,1,0.47629823700117413,go,0.15000000000000002,0.997,1.9969999999999999,014,Scanner,R,2,2019_Sep_08_1456,SST,3.0.7,60.064310737113395,
go,sst_images/Left_Arrow.bmp,None,1,848,None,0,130,130,130,,1,1,0.49363928800448775,go,0.15000000000000002,0.848,1.8479999999999999,014,Scanner,R,2,2019_Sep_08_1456,SST,3.0.7,60.064310737113395,
go,sst_images/Right_Arrow.bmp,None,2,818,None,0,131,131,131,,2,1,0.4076640820130706,go,0.15000000000000002,0.818,1.818,014,Scanner,R,2,2019_Sep_08_1456,SST,3.0.7,60.064310737113395,
stop,sst_images/Left_Arrow.bmp,sst_images/Stop_Arrow.bmp,none,743,None,0,132,132,132,,1,0,0.31090674600272905,stop,0.10000000000000002,0.743,1.8820932539972708,014,Scanner,R,2,2019_Sep_08_1456,SST,3.0.7,60.064310737113395,
go,sst_images/Left_Arrow.bmp,None,1,965,None,0,133,133,133,,1,1,0.39303475999622606,go,0.10000000000000002,0.965,1.9649999999999999,014,Scanner,R,2,2019_Sep_08_1456,SST,3.0.7,60.064310737113395,
go,sst_images/Left_Arrow.bmp,None,1,758,None,0,134,134,134,,1,1,0.3934702219994506,go,0.10000000000000002,0.758,1.758,014,Scanner,R,2,2019_Sep_08_1456,SST,3.0.7,60.064310737113395,
stop,sst_images/Right_Arrow.bmp,sst_images/Stop_Arrow.bmp,none,746,None,0,135,135,135,,None,1,,stop,0.15000000000000002,0.746,1.7460000000000002,014,Scanner,R,2,2019_Sep_08_1456,SST,3.0.7,60.064310737113395,
go,sst_images/Right_Arrow.bmp,None,2,811,None,0,136,136,136,,2,1,0.5754868520016316,go,0.15000000000000002,0.811,1.811,014,Scanner,R,2,2019_Sep_08_1456,SST,3.0.7,60.064310737113395,
go,sst_images/Right_Arrow.bmp,None,2,771,None,0,137,137,137,,2,1,0.41026526199129876,go,0.15000000000000002,0.771,1.771,014,Scanner,R,2,2019_Sep_08_1456,SST,3.0.7,60.064310737113395,
stop,sst_images/Left_Arrow.bmp,sst_images/Stop_Arrow.bmp,none,702,None,0,138,138,138,,None,1,,stop,0.2,0.702,1.7019999999999997,014,Scanner,R,2,2019_Sep_08_1456,SST,3.0.7,60.064310737113395,
go,sst_images/Left_Arrow.bmp,None,1,1050,None,0,139,139,139,,1,1,0.4412385399919003,go,0.2,1.05,2.05,014,Scanner,R,2,2019_Sep_08_1456,SST,3.0.7,60.064310737113395,
go,sst_images/Right_Arrow.bmp,None,2,743,None,0,140,140,140,,2,1,0.5598082780052209,go,0.2,0.743,1.7429999999999999,014,Scanner,R,2,2019_Sep_08_1456,SST,3.0.7,60.064310737113395,
go,sst_images/Left_Arrow.bmp,None,1,746,None,0,141,141,141,,1,1,0.4188713390030898,go,0.2,0.746,1.746,014,Scanner,R,2,2019_Sep_08_1456,SST,3.0.7,60.064310737113395,
stop,sst_images/Right_Arrow.bmp,sst_images/Stop_Arrow.bmp,none,720,None,0,142,142,142,,2,0,0.3700649210077245,stop,0.15000000000000002,0.72,1.8499350789922755,014,Scanner,R,2,2019_Sep_08_1456,SST,3.0.7,60.064310737113395,
go,sst_images/Left_Arrow.bmp,None,1,739,None,0,143,143,143,,1,1,0.3773891979944892,go,0.15000000000000002,0.739,1.7389999999999999,014,Scanner,R,2,2019_Sep_08_1456,SST,3.0.7,60.064310737113395,
go,sst_images/Right_Arrow.bmp,None,2,930,None,0,144,144,144,,2,1,0.5872017119982047,go,0.15000000000000002,0.93,1.9300000000000002,014,Scanner,R,2,2019_Sep_08_1456,SST,3.0.7,60.064310737113395,
go,sst_images/Left_Arrow.bmp,None,1,1691,None,0,145,145,145,,1,1,0.3516700650070561,go,0.15000000000000002,1.691,2.691,014,Scanner,R,2,2019_Sep_08_1456,SST,3.0.7,60.064310737113395,
go,sst_images/Right_Arrow.bmp,None,2,768,None,0,146,146,146,,2,1,0.5930424240068533,go,0.15000000000000002,0.768,1.768,014,Scanner,R,2,2019_Sep_08_1456,SST,3.0.7,60.064310737113395,
go,sst_images/Left_Arrow.bmp,None,1,2000,None,0,147,147,147,,1,1,0.44081696699140593,go,0.15000000000000002,2.0,3.0,014,Scanner,R,2,2019_Sep_08_1456,SST,3.0.7,60.064310737113395,
go,sst_images/Right_Arrow.bmp,None,2,811,None,0,148,148,148,,2,1,0.5237582279951312,go,0.15000000000000002,0.811,1.811,014,Scanner,R,2,2019_Sep_08_1456,SST,3.0.7,60.064310737113395,
stop,sst_images/Right_Arrow.bmp,sst_images/Stop_Arrow.bmp,none,730,None,0,149,149,149,,None,1,,stop,0.2,0.73,1.7299999999999998,014,Scanner,R,2,2019_Sep_08_1456,SST,3.0.7,60.064310737113395,
go,sst_images/Right_Arrow.bmp,None,2,729,None,0,150,150,150,,2,1,0.6588743480097037,go,0.2,0.729,1.729,014,Scanner,R,2,2019_Sep_08_1456,SST,3.0.7,60.064310737113395,
go,sst_images/Left_Arrow.bmp,None,1,741,None,0,151,151,151,,None,0,,go,0.2,0.741,1.741,014,Scanner,R,2,2019_Sep_08_1456,SST,3.0.7,60.064310737113395,
go,sst_images/Right_Arrow.bmp,None,2,863,None,0,152,152,152,,2,1,0.43813238000439014,go,0.2,0.863,1.863,014,Scanner,R,2,2019_Sep_08_1456,SST,3.0.7,60.064310737113395,
go,sst_images/Left_Arrow.bmp,None,1,781,None,0,153,153,153,,1,1,0.3557291000033729,go,0.2,0.781,1.7810000000000001,014,Scanner,R,2,2019_Sep_08_1456,SST,3.0.7,60.064310737113395,
stop,sst_images/Left_Arrow.bmp,sst_images/Stop_Arrow.bmp,none,797,None,0,154,154,154,,None,1,,stop,0.25,0.797,1.797,014,Scanner,R,2,2019_Sep_08_1456,SST,3.0.7,60.064310737113395,
go,sst_images/Right_Arrow.bmp,None,2,725,None,0,155,155,155,,2,1,0.5379427659936482,go,0.25,0.725,1.725,014,Scanner,R,2,2019_Sep_08_1456,SST,3.0.7,60.064310737113395,
go,sst_images/Left_Arrow.bmp,None,1,1040,None,0,156,156,156,,1,1,0.30365959600021597,go,0.25,1.04,2.04,014,Scanner,R,2,2019_Sep_08_1456,SST,3.0.7,60.064310737113395,
stop,sst_images/Left_Arrow.bmp,sst_images/Stop_Arrow.bmp,none,726,None,0,157,157,157,,1,0,0.4199821020010859,stop,0.2,0.726,1.8560178979989141,014,Scanner,R,2,2019_Sep_08_1456,SST,3.0.7,60.064310737113395,
go,sst_images/Right_Arrow.bmp,None,2,759,None,0,158,158,158,,2,1,0.441119365990744,go,0.2,0.759,1.759,014,Scanner,R,2,2019_Sep_08_1456,SST,3.0.7,60.064310737113395,
go,sst_images/Left_Arrow.bmp,None,1,816,None,0,159,159,159,,1,1,0.4900036640028702,go,0.2,0.816,1.8159999999999998,014,Scanner,R,2,2019_Sep_08_1456,SST,3.0.7,60.064310737113395,
go,sst_images/Left_Arrow.bmp,None,1,706,None,0,160,160,160,,None,0,,go,0.2,0.706,1.706,014,Scanner,R,2,2019_Sep_08_1456,SST,3.0.7,60.064310737113395,
go,sst_images/Right_Arrow.bmp,None,2,997,None,0,161,161,161,,2,1,0.4368504410085734,go,0.2,0.997,1.9969999999999999,014,Scanner,R,2,2019_Sep_08_1456,SST,3.0.7,60.064310737113395,
go,sst_images/Left_Arrow.bmp,None,1,1279,None,0,162,162,162,,1,1,0.37081681900599506,go,0.2,1.279,2.279,014,Scanner,R,2,2019_Sep_08_1456,SST,3.0.7,60.064310737113395,
go,sst_images/Right_Arrow.bmp,None,2,887,None,0,163,163,163,,2,1,0.6069993679993786,go,0.2,0.887,1.887,014,Scanner,R,2,2019_Sep_08_1456,SST,3.0.7,60.064310737113395,
go,sst_images/Right_Arrow.bmp,None,2,880,None,0,164,164,164,,2,1,0.43772428699594457,go,0.2,0.88,1.88,014,Scanner,R,2,2019_Sep_08_1456,SST,3.0.7,60.064310737113395,
go,sst_images/Right_Arrow.bmp,None,2,1248,None,0,165,165,165,,2,1,0.3572926970082335,go,0.2,1.248,2.248,014,Scanner,R,2,2019_Sep_08_1456,SST,3.0.7,60.064310737113395,
go,sst_images/Left_Arrow.bmp,None,1,863,None,0,166,166,166,,1,1,0.4559825850010384,go,0.2,0.863,1.863,014,Scanner,R,2,2019_Sep_08_1456,SST,3.0.7,60.064310737113395,
go,sst_images/Right_Arrow.bmp,None,2,850,None,0,167,167,167,,2,1,0.5212679399992339,go,0.2,0.85,1.85,014,Scanner,R,2,2019_Sep_08_1456,SST,3.0.7,60.064310737113395,
stop,sst_images/Left_Arrow.bmp,sst_images/Stop_Arrow.bmp,none,1050,None,0,168,168,168,,None,1,,stop,0.25,1.05,2.05,014,Scanner,R,2,2019_Sep_08_1456,SST,3.0.7,60.064310737113395,
go,sst_images/Right_Arrow.bmp,None,2,967,None,0,169,169,169,,2,1,0.3889527410065057,go,0.25,0.967,1.967,014,Scanner,R,2,2019_Sep_08_1456,SST,3.0.7,60.064310737113395,
go,sst_images/Left_Arrow.bmp,None,1,924,None,0,170,170,170,,1,1,0.3562825840053847,go,0.25,0.924,1.924,014,Scanner,R,2,2019_Sep_08_1456,SST,3.0.7,60.064310737113395,
go,sst_images/Right_Arrow.bmp,None,2,861,None,0,171,171,171,,2,1,0.389801373006776,go,0.25,0.861,1.861,014,Scanner,R,2,2019_Sep_08_1456,SST,3.0.7,60.064310737113395,
go,sst_images/Right_Arrow.bmp,None,2,781,None,0,172,172,172,,2,1,0.48933544899045955,go,0.25,0.781,1.7810000000000001,014,Scanner,R,2,2019_Sep_08_1456,SST,3.0.7,60.064310737113395,
go,sst_images/Right_Arrow.bmp,None,2,740,None,0,173,173,173,,2,1,0.47155607301101554,go,0.25,0.74,1.74,014,Scanner,R,2,2019_Sep_08_1456,SST,3.0.7,60.064310737113395,
go,sst_images/Left_Arrow.bmp,None,1,727,None,0,174,174,174,,1,1,0.3545552309951745,go,0.25,0.727,1.7269999999999999,014,Scanner,R,2,2019_Sep_08_1456,SST,3.0.7,60.064310737113395,
stop,sst_images/Right_Arrow.bmp,sst_images/Stop_Arrow.bmp,none,795,None,0,175,175,175,,2,0,0.3554007710044971,stop,0.2,0.795,1.989599228995503,014,Scanner,R,2,2019_Sep_08_1456,SST,3.0.7,60.064310737113395,
go,sst_images/Right_Arrow.bmp,None,2,813,None,0,176,176,176,,2,1,0.4694764279993251,go,0.2,0.813,1.813,014,Scanner,R,2,2019_Sep_08_1456,SST,3.0.7,60.064310737113395,
go,sst_images/Left_Arrow.bmp,None,1,750,None,0,177,177,177,,1,1,0.7042962489940692,go,0.2,0.75,1.75,014,Scanner,R,2,2019_Sep_08_1456,SST,3.0.7,60.064310737113395,
stop,sst_images/Left_Arrow.bmp,sst_images/Stop_Arrow.bmp,none,740,None,0,178,178,178,,1,0,0.3540338140010135,stop,0.15000000000000002,0.74,1.8859661859989865,014,Scanner,R,2,2019_Sep_08_1456,SST,3.0.7,60.064310737113395,
go,sst_images/Right_Arrow.bmp,None,2,1094,5200.0,0,179,179,179,,2,1,0.40371879999293014,go,0.15000000000000002,1.094,2.0940000000000003,014,Scanner,R,2,2019_Sep_08_1456,SST,3.0.7,60.064310737113395,
