trial_type,arrow_1,arrow_2,corrAns,jitter,run_end_fixation,trials.thisRepN,trials.thisTrialN,trials.thisN,trials.thisIndex,randomized TrialOrder,key_response.keys,key_response.corr,key_response.rt,trial_t.routineEndVal,ss_delay,iti_duration,SOA,participant,prac_or_scan,handedness,run,date,expName,psychopyVersion,frameRate,
go,sst_images/Left_Arrow.bmp,None,1,975,None,0,0,0,0,2,1,1,0.7544532389729284,go,0.05,0.975,1.975,016,Scanner,R,2,2019_Sep_03_0933,SST,3.0.7,59.96428610918491,
go,sst_images/Right_Arrow.bmp,None,2,775,None,0,1,1,1,,2,1,0.5204204329638742,go,0.05,0.775,1.775,016,Scanner,R,2,2019_Sep_03_0933,SST,3.0.7,59.96428610918491,
go,sst_images/Right_Arrow.bmp,None,2,773,None,0,2,2,2,,2,1,0.4365279959747568,go,0.05,0.773,1.7730000000000001,016,Scanner,R,2,2019_Sep_03_0933,SST,3.0.7,59.96428610918491,
go,sst_images/Left_Arrow.bmp,None,1,747,None,0,3,3,3,,1,1,0.5030275360331871,go,0.05,0.747,1.7469999999999999,016,Scanner,R,2,2019_Sep_03_0933,SST,3.0.7,59.96428610918491,
stop,sst_images/Right_Arrow.bmp,sst_images/Stop_Arrow.bmp,none,709,None,0,4,4,4,,None,1,,stop,0.1,0.709,1.709,016,Scanner,R,2,2019_Sep_03_0933,SST,3.0.7,59.96428610918491,
go,sst_images/Left_Arrow.bmp,None,1,702,None,0,5,5,5,,1,1,0.6871109700296074,go,0.1,0.702,1.702,016,Scanner,R,2,2019_Sep_03_0933,SST,3.0.7,59.96428610918491,
go,sst_images/Right_Arrow.bmp,None,2,931,None,0,6,6,6,,2,1,0.43879439000738785,go,0.1,0.931,1.931,016,Scanner,R,2,2019_Sep_03_0933,SST,3.0.7,59.96428610918491,
go,sst_images/Left_Arrow.bmp,None,1,1149,None,0,7,7,7,,1,1,0.35377185500692576,go,0.1,1.149,2.149,016,Scanner,R,2,2019_Sep_03_0933,SST,3.0.7,59.96428610918491,
go,sst_images/Right_Arrow.bmp,None,2,748,None,0,8,8,8,,2,1,0.3864905920345336,go,0.1,0.748,1.748,016,Scanner,R,2,2019_Sep_03_0933,SST,3.0.7,59.96428610918491,
stop,sst_images/Left_Arrow.bmp,sst_images/Stop_Arrow.bmp,none,848,None,0,9,9,9,,None,1,,stop,0.15000000000000002,0.848,1.848,016,Scanner,R,2,2019_Sep_03_0933,SST,3.0.7,59.96428610918491,
go,sst_images/Right_Arrow.bmp,None,2,733,None,0,10,10,10,,2,1,0.3738925770157948,go,0.15000000000000002,0.733,1.733,016,Scanner,R,2,2019_Sep_03_0933,SST,3.0.7,59.96428610918491,
stop,sst_images/Left_Arrow.bmp,None,None,822,None,0,11,11,11,,None,1,,stop,0.2,0.822,1.8219999999999998,016,Scanner,R,2,2019_Sep_03_0933,SST,3.0.7,59.96428610918491,
go,sst_images/Left_Arrow.bmp,None,1,1077,None,0,12,12,12,,2,0,0.3406505369930528,go,0.2,1.077,2.077,016,Scanner,R,2,2019_Sep_03_0933,SST,3.0.7,59.96428610918491,
go,sst_images/Right_Arrow.bmp,None,2,895,None,0,13,13,13,,2,1,0.4558767909766175,go,0.2,0.895,1.895,016,Scanner,R,2,2019_Sep_03_0933,SST,3.0.7,59.96428610918491,
go,sst_images/Left_Arrow.bmp,None,1,792,None,0,14,14,14,,1,1,0.4232398539897986,go,0.2,0.792,1.792,016,Scanner,R,2,2019_Sep_03_0933,SST,3.0.7,59.96428610918491,
go,sst_images/Left_Arrow.bmp,None,1,741,None,0,15,15,15,,1,1,0.6557273599901237,go,0.2,0.741,1.741,016,Scanner,R,2,2019_Sep_03_0933,SST,3.0.7,59.96428610918491,
go,sst_images/Left_Arrow.bmp,None,1,923,None,0,16,16,16,,1,1,0.4400124530075118,go,0.2,0.923,1.923,016,Scanner,R,2,2019_Sep_03_0933,SST,3.0.7,59.96428610918491,
stop,sst_images/Right_Arrow.bmp,sst_images/Stop_Arrow.bmp,none,799,None,0,17,17,17,,1,0,0.42057011800352484,stop,0.15000000000000002,0.799,1.878429881996475,016,Scanner,R,2,2019_Sep_03_0933,SST,3.0.7,59.96428610918491,
go,sst_images/Right_Arrow.bmp,None,2,836,None,0,18,18,18,,2,1,0.47185960796196014,go,0.15000000000000002,0.836,1.8359999999999999,016,Scanner,R,2,2019_Sep_03_0933,SST,3.0.7,59.96428610918491,
go,sst_images/Left_Arrow.bmp,None,1,789,None,0,19,19,19,,1,1,0.48849984497064725,go,0.15000000000000002,0.789,1.7890000000000001,016,Scanner,R,2,2019_Sep_03_0933,SST,3.0.7,59.96428610918491,
go,sst_images/Left_Arrow.bmp,None,1,1843,None,0,20,20,20,,1,1,0.48876433400437236,go,0.15000000000000002,1.843,2.843,016,Scanner,R,2,2019_Sep_03_0933,SST,3.0.7,59.96428610918491,
go,sst_images/Right_Arrow.bmp,None,2,839,None,0,21,21,21,,2,1,0.5375584270223044,go,0.15000000000000002,0.839,1.839,016,Scanner,R,2,2019_Sep_03_0933,SST,3.0.7,59.96428610918491,
go,sst_images/Left_Arrow.bmp,None,1,708,None,0,22,22,22,,1,1,0.7029102399828844,go,0.15000000000000002,0.708,1.708,016,Scanner,R,2,2019_Sep_03_0933,SST,3.0.7,59.96428610918491,
go,sst_images/Right_Arrow.bmp,None,2,1161,None,0,23,23,23,,2,1,0.6889780799974687,go,0.15000000000000002,1.161,2.161,016,Scanner,R,2,2019_Sep_03_0933,SST,3.0.7,59.96428610918491,
stop,sst_images/Right_Arrow.bmp,sst_images/Stop_Arrow.bmp,none,897,None,0,24,24,24,,None,1,,stop,0.2,0.897,1.897,016,Scanner,R,2,2019_Sep_03_0933,SST,3.0.7,59.96428610918491,
go,sst_images/Left_Arrow.bmp,None,1,1027,None,0,25,25,25,,1,1,0.40430968103464693,go,0.2,1.027,2.027,016,Scanner,R,2,2019_Sep_03_0933,SST,3.0.7,59.96428610918491,
go,sst_images/Right_Arrow.bmp,None,2,724,None,0,26,26,26,,2,1,0.42171488801250234,go,0.2,0.724,1.724,016,Scanner,R,2,2019_Sep_03_0933,SST,3.0.7,59.96428610918491,
stop,sst_images/Left_Arrow.bmp,sst_images/Stop_Arrow.bmp,none,733,None,0,27,27,27,,1,0,0.3842940169852227,stop,0.15000000000000002,0.733,1.8487059830147774,016,Scanner,R,2,2019_Sep_03_0933,SST,3.0.7,59.96428610918491,
go,sst_images/Right_Arrow.bmp,None,2,924,None,0,28,28,28,,2,1,0.4216811940423213,go,0.15000000000000002,0.924,1.924,016,Scanner,R,2,2019_Sep_03_0933,SST,3.0.7,59.96428610918491,
go,sst_images/Left_Arrow.bmp,None,1,719,None,0,29,29,29,,1,1,0.5034332310315222,go,0.15000000000000002,0.719,1.7189999999999999,016,Scanner,R,2,2019_Sep_03_0933,SST,3.0.7,59.96428610918491,
go,sst_images/Right_Arrow.bmp,None,2,752,None,0,30,30,30,,2,1,0.6527565429569222,go,0.15000000000000002,0.752,1.752,016,Scanner,R,2,2019_Sep_03_0933,SST,3.0.7,59.96428610918491,
stop,sst_images/Right_Arrow.bmp,sst_images/Stop_Arrow.bmp,none,732,None,0,31,31,31,,None,1,,stop,0.2,0.732,1.732,016,Scanner,R,2,2019_Sep_03_0933,SST,3.0.7,59.96428610918491,
go,sst_images/Right_Arrow.bmp,None,2,813,None,0,32,32,32,,2,1,0.6698144650436006,go,0.2,0.813,1.813,016,Scanner,R,2,2019_Sep_03_0933,SST,3.0.7,59.96428610918491,
go,sst_images/Left_Arrow.bmp,None,1,991,None,0,33,33,33,,1,1,0.43748800799949095,go,0.2,0.991,1.991,016,Scanner,R,2,2019_Sep_03_0933,SST,3.0.7,59.96428610918491,
go,sst_images/Right_Arrow.bmp,None,2,810,None,0,34,34,34,,2,1,0.4027706769993529,go,0.2,0.81,1.81,016,Scanner,R,2,2019_Sep_03_0933,SST,3.0.7,59.96428610918491,
go,sst_images/Left_Arrow.bmp,None,1,852,None,0,35,35,35,,1,1,0.5362978600314818,go,0.2,0.852,1.8519999999999999,016,Scanner,R,2,2019_Sep_03_0933,SST,3.0.7,59.96428610918491,
stop,sst_images/Right_Arrow.bmp,sst_images/Stop_Arrow.bmp,none,1038,None,0,36,36,36,,None,1,,stop,0.25,1.038,2.038,016,Scanner,R,2,2019_Sep_03_0933,SST,3.0.7,59.96428610918491,
go,sst_images/Left_Arrow.bmp,None,1,770,None,0,37,37,37,,1,1,0.40497965697431937,go,0.25,0.77,1.77,016,Scanner,R,2,2019_Sep_03_0933,SST,3.0.7,59.96428610918491,
go,sst_images/Right_Arrow.bmp,None,2,750,None,0,38,38,38,,2,1,0.8050247680512257,go,0.25,0.75,1.75,016,Scanner,R,2,2019_Sep_03_0933,SST,3.0.7,59.96428610918491,
go,sst_images/Right_Arrow.bmp,None,2,879,None,0,39,39,39,,2,1,0.48728875699453056,go,0.25,0.879,1.879,016,Scanner,R,2,2019_Sep_03_0933,SST,3.0.7,59.96428610918491,
go,sst_images/Left_Arrow.bmp,None,1,892,None,0,40,40,40,,1,1,0.7023546720156446,go,0.25,0.892,1.892,016,Scanner,R,2,2019_Sep_03_0933,SST,3.0.7,59.96428610918491,
go,sst_images/Left_Arrow.bmp,None,1,750,None,0,41,41,41,,1,1,0.7033090869663283,go,0.25,0.75,1.75,016,Scanner,R,2,2019_Sep_03_0933,SST,3.0.7,59.96428610918491,
stop,sst_images/Left_Arrow.bmp,sst_images/Stop_Arrow.bmp,none,777,None,0,42,42,42,,None,1,,stop,0.3,0.777,1.777,016,Scanner,R,2,2019_Sep_03_0933,SST,3.0.7,59.96428610918491,
go,sst_images/Right_Arrow.bmp,None,2,1125,None,0,43,43,43,,2,1,0.8191261460306123,go,0.3,1.125,2.125,016,Scanner,R,2,2019_Sep_03_0933,SST,3.0.7,59.96428610918491,
go,sst_images/Left_Arrow.bmp,None,1,1067,None,0,44,44,44,,1,1,0.787618099944666,go,0.3,1.067,2.067,016,Scanner,R,2,2019_Sep_03_0933,SST,3.0.7,59.96428610918491,
go,sst_images/Left_Arrow.bmp,None,1,746,None,0,45,45,45,,1,1,0.869966531987302,go,0.3,0.746,1.746,016,Scanner,R,2,2019_Sep_03_0933,SST,3.0.7,59.96428610918491,
go,sst_images/Right_Arrow.bmp,None,2,826,None,0,46,46,46,,2,1,0.8036449830397032,go,0.3,0.826,1.826,016,Scanner,R,2,2019_Sep_03_0933,SST,3.0.7,59.96428610918491,
go,sst_images/Right_Arrow.bmp,None,2,933,None,0,47,47,47,,2,1,0.6884317389922217,go,0.3,0.933,1.933,016,Scanner,R,2,2019_Sep_03_0933,SST,3.0.7,59.96428610918491,
go,sst_images/Right_Arrow.bmp,None,2,1204,None,0,48,48,48,,2,1,0.6024898479809053,go,0.3,1.204,2.2039999999999997,016,Scanner,R,2,2019_Sep_03_0933,SST,3.0.7,59.96428610918491,
go,sst_images/Left_Arrow.bmp,None,1,877,None,0,49,49,49,,1,1,0.8366269789985381,go,0.3,0.877,1.877,016,Scanner,R,2,2019_Sep_03_0933,SST,3.0.7,59.96428610918491,
go,sst_images/Left_Arrow.bmp,None,1,803,None,0,50,50,50,,1,1,0.870825493009761,go,0.3,0.803,1.803,016,Scanner,R,2,2019_Sep_03_0933,SST,3.0.7,59.96428610918491,
go,sst_images/Left_Arrow.bmp,None,1,1076,None,0,51,51,51,,None,0,,go,0.3,1.076,2.076,016,Scanner,R,2,2019_Sep_03_0933,SST,3.0.7,59.96428610918491,
stop,sst_images/Right_Arrow.bmp,sst_images/Stop_Arrow.bmp,none,724,None,0,52,52,52,,2,0,0.5209503359510563,stop,0.25,0.724,1.8030496640489437,016,Scanner,R,2,2019_Sep_03_0933,SST,3.0.7,59.96428610918491,
go,sst_images/Right_Arrow.bmp,None,2,756,None,0,53,53,53,,2,1,0.4376673500519246,go,0.25,0.756,1.756,016,Scanner,R,2,2019_Sep_03_0933,SST,3.0.7,59.96428610918491,
go,sst_images/Right_Arrow.bmp,None,2,1227,None,0,54,54,54,,2,1,0.4025169350206852,go,0.25,1.227,2.2270000000000003,016,Scanner,R,2,2019_Sep_03_0933,SST,3.0.7,59.96428610918491,
go,sst_images/Left_Arrow.bmp,None,1,1311,None,0,55,55,55,,1,1,0.5872407169663347,go,0.25,1.311,2.311,016,Scanner,R,2,2019_Sep_03_0933,SST,3.0.7,59.96428610918491,
go,sst_images/Left_Arrow.bmp,None,1,822,None,0,56,56,56,,1,1,0.5034311289782636,go,0.25,0.822,1.822,016,Scanner,R,2,2019_Sep_03_0933,SST,3.0.7,59.96428610918491,
go,sst_images/Left_Arrow.bmp,None,1,807,None,0,57,57,57,,1,1,0.6031372459838167,go,0.25,0.807,1.807,016,Scanner,R,2,2019_Sep_03_0933,SST,3.0.7,59.96428610918491,
go,sst_images/Right_Arrow.bmp,None,2,852,None,0,58,58,58,,2,1,0.6708278110018,go,0.25,0.852,1.8519999999999999,016,Scanner,R,2,2019_Sep_03_0933,SST,3.0.7,59.96428610918491,
go,sst_images/Left_Arrow.bmp,None,1,817,None,0,59,59,59,,1,1,0.420105790020898,go,0.25,0.817,1.817,016,Scanner,R,2,2019_Sep_03_0933,SST,3.0.7,59.96428610918491,
go,sst_images/Left_Arrow.bmp,None,1,803,None,0,60,60,60,,2,0,0.4545456560445018,go,0.25,0.803,1.803,016,Scanner,R,2,2019_Sep_03_0933,SST,3.0.7,59.96428610918491,
go,sst_images/Right_Arrow.bmp,None,2,746,None,0,61,61,61,,2,1,0.48841670900583267,go,0.25,0.746,1.746,016,Scanner,R,2,2019_Sep_03_0933,SST,3.0.7,59.96428610918491,
go,sst_images/Right_Arrow.bmp,None,2,813,None,0,62,62,62,,2,1,0.6542861370253377,go,0.25,0.813,1.813,016,Scanner,R,2,2019_Sep_03_0933,SST,3.0.7,59.96428610918491,
go,sst_images/Left_Arrow.bmp,None,1,966,None,0,63,63,63,,1,1,0.6523419540026225,go,0.25,0.966,1.966,016,Scanner,R,2,2019_Sep_03_0933,SST,3.0.7,59.96428610918491,
go,sst_images/Right_Arrow.bmp,None,2,764,None,0,64,64,64,,2,1,0.6350834360346198,go,0.25,0.764,1.764,016,Scanner,R,2,2019_Sep_03_0933,SST,3.0.7,59.96428610918491,
go,sst_images/Left_Arrow.bmp,None,1,1038,None,0,65,65,65,,1,1,0.6355935799656436,go,0.25,1.038,2.0380000000000003,016,Scanner,R,2,2019_Sep_03_0933,SST,3.0.7,59.96428610918491,
stop,sst_images/Left_Arrow.bmp,sst_images/Stop_Arrow.bmp,none,777,None,0,66,66,66,,None,1,,stop,0.3,0.777,1.777,016,Scanner,R,2,2019_Sep_03_0933,SST,3.0.7,59.96428610918491,
go,sst_images/Right_Arrow.bmp,None,2,949,None,0,67,67,67,,2,1,0.48745070199947804,go,0.3,0.949,1.9489999999999998,016,Scanner,R,2,2019_Sep_03_0933,SST,3.0.7,59.96428610918491,
go,sst_images/Right_Arrow.bmp,None,2,806,None,0,68,68,68,,1,0,0.4706787539762445,go,0.3,0.806,1.806,016,Scanner,R,2,2019_Sep_03_0933,SST,3.0.7,59.96428610918491,
go,sst_images/Left_Arrow.bmp,None,1,740,None,0,69,69,69,,1,1,0.45445827301591635,go,0.3,0.74,1.74,016,Scanner,R,2,2019_Sep_03_0933,SST,3.0.7,59.96428610918491,
stop,sst_images/Right_Arrow.bmp,sst_images/Stop_Arrow.bmp,none,807,None,0,70,70,70,,2,0,0.5386226549744606,stop,0.25,0.807,1.8683773450255394,016,Scanner,R,2,2019_Sep_03_0933,SST,3.0.7,59.96428610918491,
go,sst_images/Right_Arrow.bmp,None,2,744,None,0,71,71,71,,2,1,0.7034815340302885,go,0.25,0.744,1.744,016,Scanner,R,2,2019_Sep_03_0933,SST,3.0.7,59.96428610918491,
go,sst_images/Left_Arrow.bmp,None,1,728,None,0,72,72,72,,1,1,0.5713050340418704,go,0.25,0.728,1.728,016,Scanner,R,2,2019_Sep_03_0933,SST,3.0.7,59.96428610918491,
stop,sst_images/Right_Arrow.bmp,sst_images/Stop_Arrow.bmp,none,795,None,0,73,73,73,,None,1,,stop,0.3,0.795,1.7950000000000002,016,Scanner,R,2,2019_Sep_03_0933,SST,3.0.7,59.96428610918491,
go,sst_images/Right_Arrow.bmp,None,2,944,None,0,74,74,74,,None,0,,go,0.3,0.944,1.944,016,Scanner,R,2,2019_Sep_03_0933,SST,3.0.7,59.96428610918491,
go,sst_images/Left_Arrow.bmp,None,1,1047,None,0,75,75,75,,1,1,0.6437846050248481,go,0.3,1.047,2.0469999999999997,016,Scanner,R,2,2019_Sep_03_0933,SST,3.0.7,59.96428610918491,
go,sst_images/Right_Arrow.bmp,None,2,707,None,0,76,76,76,,2,1,0.5049820719868876,go,0.3,0.707,1.7069999999999999,016,Scanner,R,2,2019_Sep_03_0933,SST,3.0.7,59.96428610918491,
stop,sst_images/Left_Arrow.bmp,sst_images/Stop_Arrow.bmp,none,1066,None,0,77,77,77,,1,0,0.6016074069775641,stop,0.25,1.066,2.064392593022436,016,Scanner,R,2,2019_Sep_03_0933,SST,3.0.7,59.96428610918491,
go,sst_images/Right_Arrow.bmp,None,2,1270,None,0,78,78,78,,None,0,,go,0.25,1.27,2.27,016,Scanner,R,2,2019_Sep_03_0933,SST,3.0.7,59.96428610918491,
go,sst_images/Left_Arrow.bmp,None,1,708,None,0,79,79,79,,1,1,0.8851577020250261,go,0.25,0.708,1.708,016,Scanner,R,2,2019_Sep_03_0933,SST,3.0.7,59.96428610918491,
go,sst_images/Left_Arrow.bmp,None,1,724,None,0,80,80,80,,1,1,0.6695166049757972,go,0.25,0.724,1.724,016,Scanner,R,2,2019_Sep_03_0933,SST,3.0.7,59.96428610918491,
go,sst_images/Right_Arrow.bmp,None,2,739,None,0,81,81,81,,2,1,0.4543508749920875,go,0.25,0.739,1.7389999999999999,016,Scanner,R,2,2019_Sep_03_0933,SST,3.0.7,59.96428610918491,
go,sst_images/Right_Arrow.bmp,None,2,750,None,0,82,82,82,,2,1,0.43790998600889,go,0.25,0.75,1.75,016,Scanner,R,2,2019_Sep_03_0933,SST,3.0.7,59.96428610918491,
stop,sst_images/Right_Arrow.bmp,sst_images/Stop_Arrow.bmp,none,833,None,0,83,83,83,,2,0,0.43893698998726904,stop,0.2,0.833,1.944063010012731,016,Scanner,R,2,2019_Sep_03_0933,SST,3.0.7,59.96428610918491,
go,sst_images/Right_Arrow.bmp,None,2,1062,None,0,84,84,84,,2,1,0.4213219700031914,go,0.2,1.062,2.0620000000000003,016,Scanner,R,2,2019_Sep_03_0933,SST,3.0.7,59.96428610918491,
go,sst_images/Left_Arrow.bmp,None,1,1279,None,0,85,85,85,,1,1,0.5213348609977402,go,0.2,1.279,2.279,016,Scanner,R,2,2019_Sep_03_0933,SST,3.0.7,59.96428610918491,
go,sst_images/Left_Arrow.bmp,None,1,1154,None,0,86,86,86,,1,1,0.5212080070050433,go,0.2,1.154,2.154,016,Scanner,R,2,2019_Sep_03_0933,SST,3.0.7,59.96428610918491,
go,sst_images/Right_Arrow.bmp,None,2,1101,None,0,87,87,87,,2,1,0.6509884239640087,go,0.2,1.101,2.101,016,Scanner,R,2,2019_Sep_03_0933,SST,3.0.7,59.96428610918491,
go,sst_images/Left_Arrow.bmp,None,1,993,None,0,88,88,88,,1,1,0.3868943339912221,go,0.2,0.993,1.9929999999999999,016,Scanner,R,2,2019_Sep_03_0933,SST,3.0.7,59.96428610918491,
go,sst_images/Right_Arrow.bmp,None,2,884,None,0,89,89,89,,2,1,0.3545212090248242,go,0.2,0.884,1.884,016,Scanner,R,2,2019_Sep_03_0933,SST,3.0.7,59.96428610918491,
go,sst_images/Left_Arrow.bmp,None,1,932,None,0,90,90,90,,1,1,0.36109521199250594,go,0.2,0.932,1.932,016,Scanner,R,2,2019_Sep_03_0933,SST,3.0.7,59.96428610918491,
stop,sst_images/Right_Arrow.bmp,sst_images/Stop_Arrow.bmp,none,966,None,0,91,91,91,,2,0,0.36752770200837404,stop,0.15000000000000002,0.966,2.0984722979916257,016,Scanner,R,2,2019_Sep_03_0933,SST,3.0.7,59.96428610918491,
go,sst_images/Right_Arrow.bmp,None,2,898,None,0,92,92,92,,1,0,0.536211664963048,go,0.15000000000000002,0.898,1.8980000000000001,016,Scanner,R,2,2019_Sep_03_0933,SST,3.0.7,59.96428610918491,
go,sst_images/Left_Arrow.bmp,None,1,922,None,0,93,93,93,,1,1,0.41980067803524435,go,0.15000000000000002,0.922,1.9220000000000002,016,Scanner,R,2,2019_Sep_03_0933,SST,3.0.7,59.96428610918491,
go,sst_images/Left_Arrow.bmp,None,1,834,None,0,94,94,94,,1,1,0.5086930419784039,go,0.15000000000000002,0.834,1.834,016,Scanner,R,2,2019_Sep_03_0933,SST,3.0.7,59.96428610918491,
stop,sst_images/Left_Arrow.bmp,sst_images/Stop_Arrow.bmp,none,782,None,0,95,95,95,,1,0,0.38555721699958667,stop,0.10000000000000002,0.782,1.8464427830004133,016,Scanner,R,2,2019_Sep_03_0933,SST,3.0.7,59.96428610918491,
go,sst_images/Left_Arrow.bmp,None,1,806,None,0,96,96,96,,1,1,0.570335241034627,go,0.10000000000000002,0.806,1.806,016,Scanner,R,2,2019_Sep_03_0933,SST,3.0.7,59.96428610918491,
go,sst_images/Right_Arrow.bmp,None,2,804,None,0,97,97,97,,2,1,0.7290288729709573,go,0.10000000000000002,0.804,1.804,016,Scanner,R,2,2019_Sep_03_0933,SST,3.0.7,59.96428610918491,
go,sst_images/Left_Arrow.bmp,None,1,1001,None,0,98,98,98,,1,1,0.49381506396457553,go,0.10000000000000002,1.001,2.001,016,Scanner,R,2,2019_Sep_03_0933,SST,3.0.7,59.96428610918491,
go,sst_images/Right_Arrow.bmp,None,2,990,None,0,99,99,99,,2,1,0.350912097026594,go,0.10000000000000002,0.99,1.99,016,Scanner,R,2,2019_Sep_03_0933,SST,3.0.7,59.96428610918491,
stop,sst_images/Left_Arrow.bmp,sst_images/Stop_Arrow.bmp,none,803,None,0,100,100,100,,None,1,,stop,0.15000000000000002,0.803,1.8030000000000002,016,Scanner,R,2,2019_Sep_03_0933,SST,3.0.7,59.96428610918491,
go,sst_images/Right_Arrow.bmp,None,2,755,None,0,101,101,101,,2,1,0.6028889610315673,go,0.15000000000000002,0.755,1.755,016,Scanner,R,2,2019_Sep_03_0933,SST,3.0.7,59.96428610918491,
go,sst_images/Left_Arrow.bmp,None,1,1222,None,0,102,102,102,,1,1,0.627464413002599,go,0.15000000000000002,1.222,2.222,016,Scanner,R,2,2019_Sep_03_0933,SST,3.0.7,59.96428610918491,
go,sst_images/Right_Arrow.bmp,None,2,752,None,0,103,103,103,,2,1,0.453837575041689,go,0.15000000000000002,0.752,1.752,016,Scanner,R,2,2019_Sep_03_0933,SST,3.0.7,59.96428610918491,
go,sst_images/Right_Arrow.bmp,None,2,1001,None,0,104,104,104,,2,1,0.5271990229957737,go,0.15000000000000002,1.001,2.001,016,Scanner,R,2,2019_Sep_03_0933,SST,3.0.7,59.96428610918491,
go,sst_images/Left_Arrow.bmp,None,1,1372,None,0,105,105,105,,1,1,0.5869983159936965,go,0.15000000000000002,1.372,2.372,016,Scanner,R,2,2019_Sep_03_0933,SST,3.0.7,59.96428610918491,
go,sst_images/Left_Arrow.bmp,None,1,782,None,0,106,106,106,,2,0,0.35246575000928715,go,0.15000000000000002,0.782,1.782,016,Scanner,R,2,2019_Sep_03_0933,SST,3.0.7,59.96428610918491,
stop,sst_images/Right_Arrow.bmp,sst_images/Stop_Arrow.bmp,none,737,None,0,107,107,107,,2,0,0.4708022430422716,stop,0.10000000000000002,0.737,1.7161977569577285,016,Scanner,R,2,2019_Sep_03_0933,SST,3.0.7,59.96428610918491,
go,sst_images/Right_Arrow.bmp,None,2,951,None,0,108,108,108,,2,1,0.726985595014412,go,0.10000000000000002,0.951,1.951,016,Scanner,R,2,2019_Sep_03_0933,SST,3.0.7,59.96428610918491,
go,sst_images/Right_Arrow.bmp,None,2,735,None,0,109,109,109,,2,1,0.5261394240078516,go,0.10000000000000002,0.735,1.7349999999999999,016,Scanner,R,2,2019_Sep_03_0933,SST,3.0.7,59.96428610918491,
stop,sst_images/Left_Arrow.bmp,sst_images/Stop_Arrow.bmp,none,838,None,0,110,110,110,,None,1,,stop,0.15000000000000002,0.838,1.838,016,Scanner,R,2,2019_Sep_03_0933,SST,3.0.7,59.96428610918491,
go,sst_images/Left_Arrow.bmp,None,1,1006,None,0,111,111,111,,1,1,0.5774433640181087,go,0.15000000000000002,1.006,2.0060000000000002,016,Scanner,R,2,2019_Sep_03_0933,SST,3.0.7,59.96428610918491,
go,sst_images/Right_Arrow.bmp,None,2,780,None,0,112,112,112,,2,1,0.5257677920162678,go,0.15000000000000002,0.78,1.78,016,Scanner,R,2,2019_Sep_03_0933,SST,3.0.7,59.96428610918491,
go,sst_images/Left_Arrow.bmp,None,1,1109,None,0,113,113,113,,1,1,0.6625769789679907,go,0.15000000000000002,1.109,2.109,016,Scanner,R,2,2019_Sep_03_0933,SST,3.0.7,59.96428610918491,
stop,sst_images/Left_Arrow.bmp,sst_images/Stop_Arrow.bmp,none,1062,None,0,114,114,114,,None,1,,stop,0.2,1.062,2.062,016,Scanner,R,2,2019_Sep_03_0933,SST,3.0.7,59.96428610918491,
go,sst_images/Right_Arrow.bmp,None,2,898,None,0,115,115,115,,2,1,0.49080898403190076,go,0.2,0.898,1.8980000000000001,016,Scanner,R,2,2019_Sep_03_0933,SST,3.0.7,59.96428610918491,
go,sst_images/Left_Arrow.bmp,None,1,926,None,0,116,116,116,,1,1,0.8219989389763214,go,0.2,0.926,1.9260000000000002,016,Scanner,R,2,2019_Sep_03_0933,SST,3.0.7,59.96428610918491,
go,sst_images/Right_Arrow.bmp,None,2,702,None,0,117,117,117,,2,1,0.42506622604560107,go,0.2,0.702,1.702,016,Scanner,R,2,2019_Sep_03_0933,SST,3.0.7,59.96428610918491,
stop,sst_images/Right_Arrow.bmp,sst_images/Stop_Arrow.bmp,none,748,None,0,118,118,118,,None,1,,stop,0.25,0.748,1.748,016,Scanner,R,2,2019_Sep_03_0933,SST,3.0.7,59.96428610918491,
go,sst_images/Left_Arrow.bmp,None,1,823,None,0,119,119,119,,1,1,0.5200578080257401,go,0.25,0.823,1.823,016,Scanner,R,2,2019_Sep_03_0933,SST,3.0.7,59.96428610918491,
go,sst_images/Right_Arrow.bmp,None,2,918,None,0,120,120,120,,2,1,0.45975722797447816,go,0.25,0.918,1.9180000000000001,016,Scanner,R,2,2019_Sep_03_0933,SST,3.0.7,59.96428610918491,
go,sst_images/Left_Arrow.bmp,None,1,1074,None,0,121,121,121,,1,1,0.3687878870405257,go,0.25,1.074,2.074,016,Scanner,R,2,2019_Sep_03_0933,SST,3.0.7,59.96428610918491,
go,sst_images/Right_Arrow.bmp,None,2,783,None,0,122,122,122,,2,1,0.5706141999689862,go,0.25,0.783,1.783,016,Scanner,R,2,2019_Sep_03_0933,SST,3.0.7,59.96428610918491,
go,sst_images/Left_Arrow.bmp,None,1,719,None,0,123,123,123,,1,1,0.5077238120138645,go,0.25,0.719,1.7189999999999999,016,Scanner,R,2,2019_Sep_03_0933,SST,3.0.7,59.96428610918491,
stop,sst_images/Left_Arrow.bmp,sst_images/Stop_Arrow.bmp,none,817,None,0,124,124,124,,None,1,,stop,0.3,0.817,1.817,016,Scanner,R,2,2019_Sep_03_0933,SST,3.0.7,59.96428610918491,
go,sst_images/Right_Arrow.bmp,None,2,737,None,0,125,125,125,,2,1,0.7759619049611501,go,0.3,0.737,1.737,016,Scanner,R,2,2019_Sep_03_0933,SST,3.0.7,59.96428610918491,
go,sst_images/Right_Arrow.bmp,None,2,741,None,0,126,126,126,,2,1,0.6583742439979687,go,0.3,0.741,1.741,016,Scanner,R,2,2019_Sep_03_0933,SST,3.0.7,59.96428610918491,
go,sst_images/Left_Arrow.bmp,None,1,834,None,0,127,127,127,,2,0,0.7925912289647385,go,0.3,0.834,1.834,016,Scanner,R,2,2019_Sep_03_0933,SST,3.0.7,59.96428610918491,
go,sst_images/Left_Arrow.bmp,None,1,859,None,0,128,128,128,,2,0,0.4078284809947945,go,0.3,0.859,1.859,016,Scanner,R,2,2019_Sep_03_0933,SST,3.0.7,59.96428610918491,
go,sst_images/Left_Arrow.bmp,None,1,825,None,0,129,129,129,,1,1,0.5751998419873416,go,0.3,0.825,1.825,016,Scanner,R,2,2019_Sep_03_0933,SST,3.0.7,59.96428610918491,
stop,sst_images/Right_Arrow.bmp,sst_images/Stop_Arrow.bmp,none,773,None,0,130,130,130,,None,1,,stop,0.35,0.773,1.7730000000000001,016,Scanner,R,2,2019_Sep_03_0933,SST,3.0.7,59.96428610918491,
go,sst_images/Right_Arrow.bmp,None,2,751,None,0,131,131,131,,2,1,0.7569007049896754,go,0.35,0.751,1.751,016,Scanner,R,2,2019_Sep_03_0933,SST,3.0.7,59.96428610918491,
go,sst_images/Left_Arrow.bmp,None,1,965,None,0,132,132,132,,1,1,0.5363711440004408,go,0.35,0.965,1.9649999999999999,016,Scanner,R,2,2019_Sep_03_0933,SST,3.0.7,59.96428610918491,
go,sst_images/Left_Arrow.bmp,None,1,1260,None,0,133,133,133,,1,1,0.7016417020349763,go,0.35,1.26,2.26,016,Scanner,R,2,2019_Sep_03_0933,SST,3.0.7,59.96428610918491,
go,sst_images/Left_Arrow.bmp,None,1,1016,None,0,134,134,134,,1,1,0.5875519160181284,go,0.35,1.016,2.016,016,Scanner,R,2,2019_Sep_03_0933,SST,3.0.7,59.96428610918491,
go,sst_images/Right_Arrow.bmp,None,2,1049,None,0,135,135,135,,None,0,,go,0.35,1.049,2.049,016,Scanner,R,2,2019_Sep_03_0933,SST,3.0.7,59.96428610918491,
go,sst_images/Left_Arrow.bmp,None,1,732,None,0,136,136,136,,None,0,,go,0.35,0.732,1.732,016,Scanner,R,2,2019_Sep_03_0933,SST,3.0.7,59.96428610918491,
stop,sst_images/Right_Arrow.bmp,sst_images/Stop_Arrow.bmp,none,1211,None,0,137,137,137,,2,0,0.4197061259765178,stop,0.3,1.211,2.441293874023482,016,Scanner,R,2,2019_Sep_03_0933,SST,3.0.7,59.96428610918491,
go,sst_images/Left_Arrow.bmp,None,1,864,None,0,138,138,138,,1,1,0.4690809440216981,go,0.3,0.864,1.8639999999999999,016,Scanner,R,2,2019_Sep_03_0933,SST,3.0.7,59.96428610918491,
go,sst_images/Right_Arrow.bmp,None,2,877,None,0,139,139,139,,2,1,0.5559029649593867,go,0.3,0.877,1.877,016,Scanner,R,2,2019_Sep_03_0933,SST,3.0.7,59.96428610918491,
go,sst_images/Right_Arrow.bmp,None,2,1038,None,0,140,140,140,,1,0,0.3517852140357718,go,0.3,1.038,2.0380000000000003,016,Scanner,R,2,2019_Sep_03_0933,SST,3.0.7,59.96428610918491,
go,sst_images/Left_Arrow.bmp,None,1,744,None,0,141,141,141,,1,1,0.737291258003097,go,0.3,0.744,1.744,016,Scanner,R,2,2019_Sep_03_0933,SST,3.0.7,59.96428610918491,
stop,sst_images/Left_Arrow.bmp,sst_images/Stop_Arrow.bmp,none,741,None,0,142,142,142,,None,1,,stop,0.35,0.741,1.741,016,Scanner,R,2,2019_Sep_03_0933,SST,3.0.7,59.96428610918491,
go,sst_images/Right_Arrow.bmp,None,2,748,None,0,143,143,143,,2,1,0.5540887730312534,go,0.35,0.748,1.748,016,Scanner,R,2,2019_Sep_03_0933,SST,3.0.7,59.96428610918491,
go,sst_images/Left_Arrow.bmp,None,1,822,None,0,144,144,144,,1,1,0.5904176539625041,go,0.35,0.822,1.822,016,Scanner,R,2,2019_Sep_03_0933,SST,3.0.7,59.96428610918491,
go,sst_images/Left_Arrow.bmp,None,1,916,None,0,145,145,145,,1,1,0.6893128710216843,go,0.35,0.916,1.916,016,Scanner,R,2,2019_Sep_03_0933,SST,3.0.7,59.96428610918491,
go,sst_images/Right_Arrow.bmp,None,2,715,None,0,146,146,146,,2,1,0.7055052160285413,go,0.35,0.715,1.7149999999999999,016,Scanner,R,2,2019_Sep_03_0933,SST,3.0.7,59.96428610918491,
stop,sst_images/Left_Arrow.bmp,sst_images/Stop_Arrow.bmp,none,1726,None,0,147,147,147,,1,0,0.5236573709989898,stop,0.3,1.726,2.85234262900101,016,Scanner,R,2,2019_Sep_03_0933,SST,3.0.7,59.96428610918491,
go,sst_images/Left_Arrow.bmp,None,1,782,None,0,148,148,148,,1,1,0.6854751909850165,go,0.3,0.782,1.782,016,Scanner,R,2,2019_Sep_03_0933,SST,3.0.7,59.96428610918491,
go,sst_images/Right_Arrow.bmp,None,2,1726,None,0,149,149,149,,None,0,,go,0.3,1.726,2.726,016,Scanner,R,2,2019_Sep_03_0933,SST,3.0.7,59.96428610918491,
go,sst_images/Left_Arrow.bmp,None,1,953,None,0,150,150,150,,1,1,0.4540754369809292,go,0.3,0.953,1.9529999999999998,016,Scanner,R,2,2019_Sep_03_0933,SST,3.0.7,59.96428610918491,
go,sst_images/Right_Arrow.bmp,None,2,844,None,0,151,151,151,,2,1,0.43746227701194584,go,0.3,0.844,1.8439999999999999,016,Scanner,R,2,2019_Sep_03_0933,SST,3.0.7,59.96428610918491,
go,sst_images/Right_Arrow.bmp,None,2,800,None,0,152,152,152,,2,1,0.4892443860298954,go,0.3,0.8,1.8,016,Scanner,R,2,2019_Sep_03_0933,SST,3.0.7,59.96428610918491,
go,sst_images/Left_Arrow.bmp,None,1,1025,None,0,153,153,153,,1,1,0.5271605380112305,go,0.3,1.025,2.025,016,Scanner,R,2,2019_Sep_03_0933,SST,3.0.7,59.96428610918491,
go,sst_images/Right_Arrow.bmp,None,2,818,None,0,154,154,154,,2,1,0.3873280010302551,go,0.3,0.818,1.818,016,Scanner,R,2,2019_Sep_03_0933,SST,3.0.7,59.96428610918491,
go,sst_images/Left_Arrow.bmp,None,1,861,None,0,155,155,155,,1,1,0.7387833159882575,go,0.3,0.861,1.861,016,Scanner,R,2,2019_Sep_03_0933,SST,3.0.7,59.96428610918491,
go,sst_images/Right_Arrow.bmp,None,2,1006,None,0,156,156,156,,2,1,0.45466147299157456,go,0.3,1.006,2.0060000000000002,016,Scanner,R,2,2019_Sep_03_0933,SST,3.0.7,59.96428610918491,
go,sst_images/Left_Arrow.bmp,None,1,939,None,0,157,157,157,,1,1,0.33632482396205887,go,0.3,0.939,1.939,016,Scanner,R,2,2019_Sep_03_0933,SST,3.0.7,59.96428610918491,
stop,sst_images/Left_Arrow.bmp,sst_images/Stop_Arrow.bmp,none,703,None,0,158,158,158,,None,1,,stop,0.35,0.703,1.703,016,Scanner,R,2,2019_Sep_03_0933,SST,3.0.7,59.96428610918491,
go,sst_images/Right_Arrow.bmp,None,2,1064,None,0,159,159,159,,2,1,0.5532785669784062,go,0.35,1.064,2.064,016,Scanner,R,2,2019_Sep_03_0933,SST,3.0.7,59.96428610918491,
go,sst_images/Left_Arrow.bmp,None,1,1694,None,0,160,160,160,,1,1,0.7051847020047717,go,0.35,1.694,2.694,016,Scanner,R,2,2019_Sep_03_0933,SST,3.0.7,59.96428610918491,
go,sst_images/Left_Arrow.bmp,None,1,936,None,0,161,161,161,,1,1,0.5697418309864588,go,0.35,0.936,1.936,016,Scanner,R,2,2019_Sep_03_0933,SST,3.0.7,59.96428610918491,
go,sst_images/Right_Arrow.bmp,None,2,725,None,0,162,162,162,,2,1,0.5360569679760374,go,0.35,0.725,1.725,016,Scanner,R,2,2019_Sep_03_0933,SST,3.0.7,59.96428610918491,
go,sst_images/Left_Arrow.bmp,None,1,777,None,0,163,163,163,,1,1,0.5362416580319405,go,0.35,0.777,1.7770000000000001,016,Scanner,R,2,2019_Sep_03_0933,SST,3.0.7,59.96428610918491,
go,sst_images/Right_Arrow.bmp,None,2,1070,None,0,164,164,164,,2,1,0.3860887730261311,go,0.35,1.07,2.0700000000000003,016,Scanner,R,2,2019_Sep_03_0933,SST,3.0.7,59.96428610918491,
go,sst_images/Right_Arrow.bmp,None,2,1006,None,0,165,165,165,,2,1,0.4366754679940641,go,0.35,1.006,2.0060000000000002,016,Scanner,R,2,2019_Sep_03_0933,SST,3.0.7,59.96428610918491,
go,sst_images/Right_Arrow.bmp,None,2,799,None,0,166,166,166,,2,1,0.4537554690032266,go,0.35,0.799,1.799,016,Scanner,R,2,2019_Sep_03_0933,SST,3.0.7,59.96428610918491,
go,sst_images/Left_Arrow.bmp,None,1,769,None,0,167,167,167,,1,1,0.637379078019876,go,0.35,0.769,1.7690000000000001,016,Scanner,R,2,2019_Sep_03_0933,SST,3.0.7,59.96428610918491,
go,sst_images/Right_Arrow.bmp,None,2,709,None,0,168,168,168,,2,1,0.6050569280050695,go,0.35,0.709,1.709,016,Scanner,R,2,2019_Sep_03_0933,SST,3.0.7,59.96428610918491,
stop,sst_images/Right_Arrow.bmp,sst_images/Stop_Arrow.bmp,none,834,None,0,169,169,169,,2,0,0.48457168601453304,stop,0.3,0.834,1.9994283139854672,016,Scanner,R,2,2019_Sep_03_0933,SST,3.0.7,59.96428610918491,
go,sst_images/Right_Arrow.bmp,None,2,742,None,0,170,170,170,,2,1,0.9050810820190236,go,0.3,0.742,1.742,016,Scanner,R,2,2019_Sep_03_0933,SST,3.0.7,59.96428610918491,
go,sst_images/Left_Arrow.bmp,None,1,1211,None,0,171,171,171,,None,0,,go,0.3,1.211,2.2110000000000003,016,Scanner,R,2,2019_Sep_03_0933,SST,3.0.7,59.96428610918491,
go,sst_images/Right_Arrow.bmp,None,2,885,None,0,172,172,172,,2,1,0.35474247101228684,go,0.3,0.885,1.885,016,Scanner,R,2,2019_Sep_03_0933,SST,3.0.7,59.96428610918491,
go,sst_images/Right_Arrow.bmp,None,2,1120,None,0,173,173,173,,2,1,0.6376835049595684,go,0.3,1.12,2.12,016,Scanner,R,2,2019_Sep_03_0933,SST,3.0.7,59.96428610918491,
go,sst_images/Right_Arrow.bmp,None,2,1103,None,0,174,174,174,,None,0,,go,0.3,1.103,2.1029999999999998,016,Scanner,R,2,2019_Sep_03_0933,SST,3.0.7,59.96428610918491,
go,sst_images/Left_Arrow.bmp,None,1,717,None,0,175,175,175,,1,1,0.5686706599663012,go,0.3,0.717,1.717,016,Scanner,R,2,2019_Sep_03_0933,SST,3.0.7,59.96428610918491,
go,sst_images/Right_Arrow.bmp,None,2,897,None,0,176,176,176,,2,1,0.4689868100103922,go,0.3,0.897,1.897,016,Scanner,R,2,2019_Sep_03_0933,SST,3.0.7,59.96428610918491,
stop,sst_images/Left_Arrow.bmp,sst_images/Stop_Arrow.bmp,none,744,None,0,177,177,177,,None,1,,stop,0.35,0.744,1.744,016,Scanner,R,2,2019_Sep_03_0933,SST,3.0.7,59.96428610918491,
go,sst_images/Left_Arrow.bmp,None,1,805,None,0,178,178,178,,2,0,0.4547621310339309,go,0.35,0.805,1.8050000000000002,016,Scanner,R,2,2019_Sep_03_0933,SST,3.0.7,59.96428610918491,
go,sst_images/Right_Arrow.bmp,None,2,793,5096.0,0,179,179,179,,2,1,0.6527527550351806,go,0.35,0.793,1.7930000000000001,016,Scanner,R,2,2019_Sep_03_0933,SST,3.0.7,59.96428610918491,
