trial_type,arrow_1,arrow_2,corrAns,jitter,run_end_fixation,trials.thisRepN,trials.thisTrialN,trials.thisN,trials.thisIndex,randomized TrialOrder,key_response.keys,key_response.corr,trial_t.routineEndVal,ss_delay,iti_duration,SOA,key_response.rt,participant,prac_or_scan,handedness,run,date,expName,psychopyVersion,frameRate,
go,sst_images/Left_Arrow.bmp,None,1,797,None,0,0,0,0,4,None,0,go,0.05,0.797,1.7970000000000002,,017,Scanner,R,2,2019_Sep_04_0939,SST,3.0.7,60.163591664261546,
go,sst_images/Right_Arrow.bmp,None,2,1239,None,0,1,1,1,,2,1,go,0.05,1.239,2.239,0.5053916019996905,017,Scanner,R,2,2019_Sep_04_0939,SST,3.0.7,60.163591664261546,
go,sst_images/Right_Arrow.bmp,None,2,824,None,0,2,2,2,,2,1,go,0.05,0.824,1.8239999999999998,0.5842271029996482,017,Scanner,R,2,2019_Sep_04_0939,SST,3.0.7,60.163591664261546,
go,sst_images/Left_Arrow.bmp,None,1,929,None,0,3,3,3,,1,1,go,0.05,0.929,1.929,0.5249397060006231,017,Scanner,R,2,2019_Sep_04_0939,SST,3.0.7,60.163591664261546,
go,sst_images/Left_Arrow.bmp,None,1,701,None,0,4,4,4,,1,1,go,0.05,0.701,1.701,0.48708295400047064,017,Scanner,R,2,2019_Sep_04_0939,SST,3.0.7,60.163591664261546,
stop,sst_images/Right_Arrow.bmp,sst_images/Stop_Arrow.bmp,none,768,None,0,5,5,5,,None,1,stop,0.1,0.768,1.768,,017,Scanner,R,2,2019_Sep_04_0939,SST,3.0.7,60.163591664261546,
go,sst_images/Right_Arrow.bmp,None,2,884,None,0,6,6,6,,2,1,go,0.1,0.884,1.884,0.5724848869995185,017,Scanner,R,2,2019_Sep_04_0939,SST,3.0.7,60.163591664261546,
go,sst_images/Left_Arrow.bmp,None,1,723,None,0,7,7,7,,1,1,go,0.1,0.723,1.7229999999999999,0.5261087279995991,017,Scanner,R,2,2019_Sep_04_0939,SST,3.0.7,60.163591664261546,
go,sst_images/Right_Arrow.bmp,None,2,872,None,0,8,8,8,,2,1,go,0.1,0.872,1.8719999999999999,0.6089693860003536,017,Scanner,R,2,2019_Sep_04_0939,SST,3.0.7,60.163591664261546,
go,sst_images/Right_Arrow.bmp,None,2,804,None,0,9,9,9,,1,0,go,0.1,0.804,1.804,0.5060454750000645,017,Scanner,R,2,2019_Sep_04_0939,SST,3.0.7,60.163591664261546,
go,sst_images/Left_Arrow.bmp,None,1,729,None,0,10,10,10,,1,1,go,0.1,0.729,1.729,0.6199763329996131,017,Scanner,R,2,2019_Sep_04_0939,SST,3.0.7,60.163591664261546,
go,sst_images/Right_Arrow.bmp,None,2,758,None,0,11,11,11,,2,1,go,0.1,0.758,1.758,0.5929545170001802,017,Scanner,R,2,2019_Sep_04_0939,SST,3.0.7,60.163591664261546,
go,sst_images/Left_Arrow.bmp,None,1,721,None,0,12,12,12,,1,1,go,0.1,0.721,1.721,0.5741021200001342,017,Scanner,R,2,2019_Sep_04_0939,SST,3.0.7,60.163591664261546,
stop,sst_images/Left_Arrow.bmp,sst_images/Stop_Arrow.bmp,none,823,None,0,13,13,13,,None,1,stop,0.15000000000000002,0.823,1.8230000000000002,,017,Scanner,R,2,2019_Sep_04_0939,SST,3.0.7,60.163591664261546,
go,sst_images/Left_Arrow.bmp,None,1,847,None,0,14,14,14,,1,1,go,0.15000000000000002,0.847,1.847,0.5370123180000519,017,Scanner,R,2,2019_Sep_04_0939,SST,3.0.7,60.163591664261546,
go,sst_images/Left_Arrow.bmp,None,1,725,None,0,15,15,15,,1,1,go,0.15000000000000002,0.725,1.725,0.5380402330001743,017,Scanner,R,2,2019_Sep_04_0939,SST,3.0.7,60.163591664261546,
go,sst_images/Right_Arrow.bmp,None,2,865,None,0,16,16,16,,2,1,go,0.15000000000000002,0.865,1.865,0.48977128300066397,017,Scanner,R,2,2019_Sep_04_0939,SST,3.0.7,60.163591664261546,
go,sst_images/Left_Arrow.bmp,None,1,712,None,0,17,17,17,,1,1,go,0.15000000000000002,0.712,1.712,0.5904478759994163,017,Scanner,R,2,2019_Sep_04_0939,SST,3.0.7,60.163591664261546,
stop,sst_images/Left_Arrow.bmp,sst_images/Stop_Arrow.bmp,none,761,None,0,18,18,18,,None,1,stop,0.2,0.761,1.761,,017,Scanner,R,2,2019_Sep_04_0939,SST,3.0.7,60.163591664261546,
go,sst_images/Left_Arrow.bmp,None,1,838,None,0,19,19,19,,1,1,go,0.2,0.838,1.838,0.5715137400002277,017,Scanner,R,2,2019_Sep_04_0939,SST,3.0.7,60.163591664261546,
go,sst_images/Right_Arrow.bmp,None,2,859,None,0,20,20,20,,2,1,go,0.2,0.859,1.859,0.7530164699992383,017,Scanner,R,2,2019_Sep_04_0939,SST,3.0.7,60.163591664261546,
go,sst_images/Left_Arrow.bmp,None,1,754,None,0,21,21,21,,1,1,go,0.2,0.754,1.754,0.5025305530007245,017,Scanner,R,2,2019_Sep_04_0939,SST,3.0.7,60.163591664261546,
stop,sst_images/Right_Arrow.bmp,sst_images/Stop_Arrow.bmp,none,1182,None,0,22,22,22,,None,1,stop,0.25,1.182,2.182,,017,Scanner,R,2,2019_Sep_04_0939,SST,3.0.7,60.163591664261546,
go,sst_images/Right_Arrow.bmp,None,2,1008,None,0,23,23,23,,2,1,go,0.25,1.008,2.008,0.6199028569999427,017,Scanner,R,2,2019_Sep_04_0939,SST,3.0.7,60.163591664261546,
go,sst_images/Left_Arrow.bmp,None,1,948,None,0,24,24,24,,1,1,go,0.25,0.948,1.948,0.6197358159997748,017,Scanner,R,2,2019_Sep_04_0939,SST,3.0.7,60.163591664261546,
go,sst_images/Right_Arrow.bmp,None,2,819,None,0,25,25,25,,2,1,go,0.25,0.819,1.819,0.5397653460004221,017,Scanner,R,2,2019_Sep_04_0939,SST,3.0.7,60.163591664261546,
stop,sst_images/Right_Arrow.bmp,sst_images/Stop_Arrow.bmp,none,829,None,0,26,26,26,,None,1,stop,0.3,0.829,1.829,,017,Scanner,R,2,2019_Sep_04_0939,SST,3.0.7,60.163591664261546,
go,sst_images/Right_Arrow.bmp,None,2,913,None,0,27,27,27,,2,1,go,0.3,0.913,1.913,0.7191090050000639,017,Scanner,R,2,2019_Sep_04_0939,SST,3.0.7,60.163591664261546,
go,sst_images/Left_Arrow.bmp,None,1,803,None,0,28,28,28,,1,1,go,0.3,0.803,1.803,0.6064043950000269,017,Scanner,R,2,2019_Sep_04_0939,SST,3.0.7,60.163591664261546,
go,sst_images/Right_Arrow.bmp,None,2,706,None,0,29,29,29,,2,1,go,0.3,0.706,1.706,0.5902455599998575,017,Scanner,R,2,2019_Sep_04_0939,SST,3.0.7,60.163591664261546,
go,sst_images/Right_Arrow.bmp,None,2,788,None,0,30,30,30,,2,1,go,0.3,0.788,1.788,0.5890708950000771,017,Scanner,R,2,2019_Sep_04_0939,SST,3.0.7,60.163591664261546,
go,sst_images/Left_Arrow.bmp,None,1,865,None,0,31,31,31,,1,1,go,0.3,0.865,1.865,0.6384119489994191,017,Scanner,R,2,2019_Sep_04_0939,SST,3.0.7,60.163591664261546,
stop,sst_images/Left_Arrow.bmp,sst_images/Stop_Arrow.bmp,none,917,None,0,32,32,32,,1,0,stop,0.25,0.917,1.980530687000457,0.536469312999543,017,Scanner,R,2,2019_Sep_04_0939,SST,3.0.7,60.163591664261546,
go,sst_images/Right_Arrow.bmp,None,2,1149,None,0,33,33,33,,2,1,go,0.25,1.149,2.149,0.5389204399998562,017,Scanner,R,2,2019_Sep_04_0939,SST,3.0.7,60.163591664261546,
go,sst_images/Left_Arrow.bmp,None,1,829,None,0,34,34,34,,1,1,go,0.25,0.829,1.829,0.6047376059996168,017,Scanner,R,2,2019_Sep_04_0939,SST,3.0.7,60.163591664261546,
go,sst_images/Left_Arrow.bmp,None,1,754,None,0,35,35,35,,1,1,go,0.25,0.754,1.754,0.7394574749996536,017,Scanner,R,2,2019_Sep_04_0939,SST,3.0.7,60.163591664261546,
stop,sst_images/Right_Arrow.bmp,sst_images/Stop_Arrow.bmp,none,749,None,0,36,36,36,,None,1,stop,0.3,0.749,1.7489999999999999,,017,Scanner,R,2,2019_Sep_04_0939,SST,3.0.7,60.163591664261546,
go,sst_images/Right_Arrow.bmp,None,2,789,None,0,37,37,37,,2,1,go,0.3,0.789,1.7890000000000001,0.7058106940003199,017,Scanner,R,2,2019_Sep_04_0939,SST,3.0.7,60.163591664261546,
go,sst_images/Right_Arrow.bmp,None,2,1541,None,0,38,38,38,,2,1,go,0.3,1.541,2.541,0.6041141249997963,017,Scanner,R,2,2019_Sep_04_0939,SST,3.0.7,60.163591664261546,
go,sst_images/Left_Arrow.bmp,None,1,814,None,0,39,39,39,,1,1,go,0.3,0.814,1.814,0.5889925569999832,017,Scanner,R,2,2019_Sep_04_0939,SST,3.0.7,60.163591664261546,
go,sst_images/Left_Arrow.bmp,None,1,739,None,0,40,40,40,,1,1,go,0.3,0.739,1.7389999999999999,0.5868588639996233,017,Scanner,R,2,2019_Sep_04_0939,SST,3.0.7,60.163591664261546,
go,sst_images/Right_Arrow.bmp,None,2,704,None,0,41,41,41,,2,1,go,0.3,0.704,1.704,0.7534555590000309,017,Scanner,R,2,2019_Sep_04_0939,SST,3.0.7,60.163591664261546,
stop,sst_images/Right_Arrow.bmp,sst_images/Stop_Arrow.bmp,none,721,None,0,42,42,42,,None,1,stop,0.35,0.721,1.721,,017,Scanner,R,2,2019_Sep_04_0939,SST,3.0.7,60.163591664261546,
go,sst_images/Left_Arrow.bmp,None,1,1069,None,0,43,43,43,,1,1,go,0.35,1.069,2.069,0.6018500720001612,017,Scanner,R,2,2019_Sep_04_0939,SST,3.0.7,60.163591664261546,
go,sst_images/Left_Arrow.bmp,None,1,829,None,0,44,44,44,,1,1,go,0.35,0.829,1.829,0.5714625009995871,017,Scanner,R,2,2019_Sep_04_0939,SST,3.0.7,60.163591664261546,
go,sst_images/Right_Arrow.bmp,None,2,2000,None,0,45,45,45,,2,1,go,0.35,2.0,3.0,0.6523198949998914,017,Scanner,R,2,2019_Sep_04_0939,SST,3.0.7,60.163591664261546,
go,sst_images/Right_Arrow.bmp,None,2,791,None,0,46,46,46,,2,1,go,0.35,0.791,1.791,0.7207292670000243,017,Scanner,R,2,2019_Sep_04_0939,SST,3.0.7,60.163591664261546,
go,sst_images/Right_Arrow.bmp,None,2,757,None,0,47,47,47,,2,1,go,0.35,0.757,1.7570000000000001,0.5700488659995244,017,Scanner,R,2,2019_Sep_04_0939,SST,3.0.7,60.163591664261546,
go,sst_images/Left_Arrow.bmp,None,1,880,None,0,48,48,48,,1,1,go,0.35,0.88,1.88,0.6705854780002483,017,Scanner,R,2,2019_Sep_04_0939,SST,3.0.7,60.163591664261546,
go,sst_images/Left_Arrow.bmp,None,1,755,None,0,49,49,49,,1,1,go,0.35,0.755,1.755,0.4867148419998557,017,Scanner,R,2,2019_Sep_04_0939,SST,3.0.7,60.163591664261546,
go,sst_images/Left_Arrow.bmp,None,1,781,None,0,50,50,50,,1,1,go,0.35,0.781,1.7810000000000001,0.5704260759994213,017,Scanner,R,2,2019_Sep_04_0939,SST,3.0.7,60.163591664261546,
go,sst_images/Right_Arrow.bmp,None,2,792,None,0,51,51,51,,2,1,go,0.35,0.792,1.792,0.5861302520006575,017,Scanner,R,2,2019_Sep_04_0939,SST,3.0.7,60.163591664261546,
go,sst_images/Right_Arrow.bmp,None,2,780,None,0,52,52,52,,2,1,go,0.35,0.78,1.78,0.5522550989999218,017,Scanner,R,2,2019_Sep_04_0939,SST,3.0.7,60.163591664261546,
go,sst_images/Left_Arrow.bmp,None,1,959,None,0,53,53,53,,1,1,go,0.35,0.959,1.959,0.5364555950000067,017,Scanner,R,2,2019_Sep_04_0939,SST,3.0.7,60.163591664261546,
go,sst_images/Left_Arrow.bmp,None,1,701,None,0,54,54,54,,1,1,go,0.35,0.701,1.701,0.7358505859992874,017,Scanner,R,2,2019_Sep_04_0939,SST,3.0.7,60.163591664261546,
stop,sst_images/Left_Arrow.bmp,sst_images/Stop_Arrow.bmp,none,734,None,0,55,55,55,,None,1,stop,0.39999999999999997,0.734,1.7340000000000002,,017,Scanner,R,2,2019_Sep_04_0939,SST,3.0.7,60.163591664261546,
go,sst_images/Left_Arrow.bmp,None,1,821,None,0,56,56,56,,2,0,go,0.39999999999999997,0.821,1.821,0.9709388979999858,017,Scanner,R,2,2019_Sep_04_0939,SST,3.0.7,60.163591664261546,
go,sst_images/Right_Arrow.bmp,None,2,760,None,0,57,57,57,,2,1,go,0.39999999999999997,0.76,1.76,0.8714658839999174,017,Scanner,R,2,2019_Sep_04_0939,SST,3.0.7,60.163591664261546,
go,sst_images/Left_Arrow.bmp,None,1,934,None,0,58,58,58,,1,1,go,0.39999999999999997,0.934,1.9340000000000002,0.6352937120000206,017,Scanner,R,2,2019_Sep_04_0939,SST,3.0.7,60.163591664261546,
stop,sst_images/Right_Arrow.bmp,sst_images/Stop_Arrow.bmp,none,2000,None,0,59,59,59,,None,1,stop,0.44999999999999996,2.0,2.9999999999999996,,017,Scanner,R,2,2019_Sep_04_0939,SST,3.0.7,60.163591664261546,
go,sst_images/Left_Arrow.bmp,None,1,730,None,0,60,60,60,,1,1,go,0.44999999999999996,0.73,1.73,0.5383557770001062,017,Scanner,R,2,2019_Sep_04_0939,SST,3.0.7,60.163591664261546,
go,sst_images/Right_Arrow.bmp,None,2,891,None,0,61,61,61,,2,1,go,0.44999999999999996,0.891,1.891,0.6548851379993721,017,Scanner,R,2,2019_Sep_04_0939,SST,3.0.7,60.163591664261546,
go,sst_images/Right_Arrow.bmp,None,2,711,None,0,62,62,62,,2,1,go,0.44999999999999996,0.711,1.7109999999999999,0.604642108999542,017,Scanner,R,2,2019_Sep_04_0939,SST,3.0.7,60.163591664261546,
stop,sst_images/Left_Arrow.bmp,sst_images/Stop_Arrow.bmp,none,755,None,0,63,63,63,,1,0,stop,0.39999999999999997,0.755,1.8846152239992806,0.6203847760007193,017,Scanner,R,2,2019_Sep_04_0939,SST,3.0.7,60.163591664261546,
go,sst_images/Left_Arrow.bmp,None,1,777,None,0,64,64,64,,1,1,go,0.39999999999999997,0.777,1.7770000000000001,0.6042754010004501,017,Scanner,R,2,2019_Sep_04_0939,SST,3.0.7,60.163591664261546,
go,sst_images/Right_Arrow.bmp,None,2,743,None,0,65,65,65,,2,1,go,0.39999999999999997,0.743,1.7429999999999999,0.5868259300004866,017,Scanner,R,2,2019_Sep_04_0939,SST,3.0.7,60.163591664261546,
go,sst_images/Left_Arrow.bmp,None,1,1005,None,0,66,66,66,,1,1,go,0.39999999999999997,1.005,2.005,0.51819069999965,017,Scanner,R,2,2019_Sep_04_0939,SST,3.0.7,60.163591664261546,
go,sst_images/Right_Arrow.bmp,None,2,770,None,0,67,67,67,,1,0,go,0.39999999999999997,0.77,1.77,0.5535795639998469,017,Scanner,R,2,2019_Sep_04_0939,SST,3.0.7,60.163591664261546,
go,sst_images/Right_Arrow.bmp,None,2,782,None,0,68,68,68,,2,1,go,0.39999999999999997,0.782,1.782,0.6680323239997961,017,Scanner,R,2,2019_Sep_04_0939,SST,3.0.7,60.163591664261546,
go,sst_images/Left_Arrow.bmp,None,1,714,None,0,69,69,69,,1,1,go,0.39999999999999997,0.714,1.714,0.5880759490000855,017,Scanner,R,2,2019_Sep_04_0939,SST,3.0.7,60.163591664261546,
go,sst_images/Right_Arrow.bmp,None,2,773,None,0,70,70,70,,2,1,go,0.39999999999999997,0.773,1.7730000000000001,0.6352726200002508,017,Scanner,R,2,2019_Sep_04_0939,SST,3.0.7,60.163591664261546,
go,sst_images/Left_Arrow.bmp,None,1,726,None,0,71,71,71,,1,1,go,0.39999999999999997,0.726,1.726,0.6212711449998096,017,Scanner,R,2,2019_Sep_04_0939,SST,3.0.7,60.163591664261546,
go,sst_images/Right_Arrow.bmp,None,2,1190,None,0,72,72,72,,2,1,go,0.39999999999999997,1.19,2.19,0.5209589109999797,017,Scanner,R,2,2019_Sep_04_0939,SST,3.0.7,60.163591664261546,
stop,sst_images/Right_Arrow.bmp,sst_images/Stop_Arrow.bmp,none,1726,None,0,73,73,73,,None,1,stop,0.44999999999999996,1.726,2.7259999999999995,,017,Scanner,R,2,2019_Sep_04_0939,SST,3.0.7,60.163591664261546,
go,sst_images/Left_Arrow.bmp,None,1,757,None,0,74,74,74,,1,1,go,0.44999999999999996,0.757,1.7570000000000001,0.5869712660005462,017,Scanner,R,2,2019_Sep_04_0939,SST,3.0.7,60.163591664261546,
go,sst_images/Right_Arrow.bmp,None,2,1059,None,0,75,75,75,,2,1,go,0.44999999999999996,1.059,2.059,0.6045351349994235,017,Scanner,R,2,2019_Sep_04_0939,SST,3.0.7,60.163591664261546,
go,sst_images/Right_Arrow.bmp,None,2,831,None,0,76,76,76,,2,1,go,0.44999999999999996,0.831,1.831,0.6362283210000896,017,Scanner,R,2,2019_Sep_04_0939,SST,3.0.7,60.163591664261546,
go,sst_images/Left_Arrow.bmp,None,1,829,None,0,77,77,77,,1,1,go,0.44999999999999996,0.829,1.829,0.7047463510007219,017,Scanner,R,2,2019_Sep_04_0939,SST,3.0.7,60.163591664261546,
stop,sst_images/Right_Arrow.bmp,sst_images/Stop_Arrow.bmp,none,1045,None,0,78,78,78,,2,0,stop,0.39999999999999997,1.045,2.2234005170002273,0.5715994829997726,017,Scanner,R,2,2019_Sep_04_0939,SST,3.0.7,60.163591664261546,
go,sst_images/Left_Arrow.bmp,None,1,1171,None,0,79,79,79,,1,1,go,0.39999999999999997,1.171,2.1710000000000003,0.8046837040001265,017,Scanner,R,2,2019_Sep_04_0939,SST,3.0.7,60.163591664261546,
go,sst_images/Right_Arrow.bmp,None,2,733,None,0,80,80,80,,2,1,go,0.39999999999999997,0.733,1.733,0.571448263000093,017,Scanner,R,2,2019_Sep_04_0939,SST,3.0.7,60.163591664261546,
go,sst_images/Right_Arrow.bmp,None,2,726,None,0,81,81,81,,2,1,go,0.39999999999999997,0.726,1.726,0.7043923940000241,017,Scanner,R,2,2019_Sep_04_0939,SST,3.0.7,60.163591664261546,
go,sst_images/Right_Arrow.bmp,None,2,892,None,0,82,82,82,,2,1,go,0.39999999999999997,0.892,1.892,0.935120996000478,017,Scanner,R,2,2019_Sep_04_0939,SST,3.0.7,60.163591664261546,
go,sst_images/Left_Arrow.bmp,None,1,751,None,0,83,83,83,,1,1,go,0.39999999999999997,0.751,1.751,0.620916051999302,017,Scanner,R,2,2019_Sep_04_0939,SST,3.0.7,60.163591664261546,
go,sst_images/Left_Arrow.bmp,None,1,802,None,0,84,84,84,,1,1,go,0.39999999999999997,0.802,1.802,0.8720955740000136,017,Scanner,R,2,2019_Sep_04_0939,SST,3.0.7,60.163591664261546,
go,sst_images/Right_Arrow.bmp,None,2,847,None,0,85,85,85,,2,1,go,0.39999999999999997,0.847,1.847,0.6538819529996545,017,Scanner,R,2,2019_Sep_04_0939,SST,3.0.7,60.163591664261546,
stop,sst_images/Left_Arrow.bmp,sst_images/Stop_Arrow.bmp,none,1155,None,0,86,86,86,,1,0,stop,0.35,1.155,2.286659115999537,0.5683408840004631,017,Scanner,R,2,2019_Sep_04_0939,SST,3.0.7,60.163591664261546,
go,sst_images/Left_Arrow.bmp,None,1,923,None,0,87,87,87,,1,1,go,0.35,0.923,1.923,0.5517189920001329,017,Scanner,R,2,2019_Sep_04_0939,SST,3.0.7,60.163591664261546,
go,sst_images/Right_Arrow.bmp,None,2,911,None,0,88,88,88,,2,1,go,0.35,0.911,1.911,0.5512201729998196,017,Scanner,R,2,2019_Sep_04_0939,SST,3.0.7,60.163591664261546,
go,sst_images/Left_Arrow.bmp,None,1,1271,None,0,89,89,89,,1,1,go,0.35,1.271,2.271,0.5214619080006742,017,Scanner,R,2,2019_Sep_04_0939,SST,3.0.7,60.163591664261546,
go,sst_images/Right_Arrow.bmp,None,2,1030,None,0,90,90,90,,2,1,go,0.35,1.03,2.0300000000000002,0.904931506000139,017,Scanner,R,2,2019_Sep_04_0939,SST,3.0.7,60.163591664261546,
go,sst_images/Left_Arrow.bmp,None,1,893,None,0,91,91,91,,1,1,go,0.35,0.893,1.893,0.637317635000727,017,Scanner,R,2,2019_Sep_04_0939,SST,3.0.7,60.163591664261546,
go,sst_images/Left_Arrow.bmp,None,1,701,None,0,92,92,92,,1,1,go,0.35,0.701,1.701,0.6043259309999485,017,Scanner,R,2,2019_Sep_04_0939,SST,3.0.7,60.163591664261546,
go,sst_images/Left_Arrow.bmp,None,1,750,None,0,93,93,93,,1,1,go,0.35,0.75,1.75,0.4500402439998652,017,Scanner,R,2,2019_Sep_04_0939,SST,3.0.7,60.163591664261546,
go,sst_images/Right_Arrow.bmp,None,2,823,None,0,94,94,94,,None,0,go,0.35,0.823,1.823,,017,Scanner,R,2,2019_Sep_04_0939,SST,3.0.7,60.163591664261546,
go,sst_images/Left_Arrow.bmp,None,1,778,None,0,95,95,95,,1,1,go,0.35,0.778,1.778,0.754151305999585,017,Scanner,R,2,2019_Sep_04_0939,SST,3.0.7,60.163591664261546,
go,sst_images/Right_Arrow.bmp,None,2,1182,None,0,96,96,96,,2,1,go,0.35,1.182,2.182,0.6212433079999755,017,Scanner,R,2,2019_Sep_04_0939,SST,3.0.7,60.163591664261546,
go,sst_images/Right_Arrow.bmp,None,2,813,None,0,97,97,97,,2,1,go,0.35,0.813,1.813,0.9197489069993026,017,Scanner,R,2,2019_Sep_04_0939,SST,3.0.7,60.163591664261546,
go,sst_images/Left_Arrow.bmp,None,1,799,None,0,98,98,98,,1,1,go,0.35,0.799,1.799,0.6038078290002886,017,Scanner,R,2,2019_Sep_04_0939,SST,3.0.7,60.163591664261546,
go,sst_images/Right_Arrow.bmp,None,2,765,None,0,99,99,99,,2,1,go,0.35,0.765,1.7650000000000001,0.8357966060002582,017,Scanner,R,2,2019_Sep_04_0939,SST,3.0.7,60.163591664261546,
go,sst_images/Right_Arrow.bmp,None,2,755,None,0,100,100,100,,2,1,go,0.35,0.755,1.755,0.9358812430000398,017,Scanner,R,2,2019_Sep_04_0939,SST,3.0.7,60.163591664261546,
stop,sst_images/Right_Arrow.bmp,sst_images/Stop_Arrow.bmp,none,792,None,0,101,101,101,,None,1,stop,0.39999999999999997,0.792,1.792,,017,Scanner,R,2,2019_Sep_04_0939,SST,3.0.7,60.163591664261546,
go,sst_images/Left_Arrow.bmp,None,1,1155,None,0,102,102,102,,None,0,go,0.39999999999999997,1.155,2.1550000000000002,,017,Scanner,R,2,2019_Sep_04_0939,SST,3.0.7,60.163591664261546,
go,sst_images/Left_Arrow.bmp,None,1,807,None,0,103,103,103,,1,1,go,0.39999999999999997,0.807,1.807,0.5455769030004376,017,Scanner,R,2,2019_Sep_04_0939,SST,3.0.7,60.163591664261546,
go,sst_images/Right_Arrow.bmp,None,2,860,None,0,104,104,104,,2,1,go,0.39999999999999997,0.86,1.8599999999999999,0.5626068530000339,017,Scanner,R,2,2019_Sep_04_0939,SST,3.0.7,60.163591664261546,
go,sst_images/Right_Arrow.bmp,None,2,1159,None,0,105,105,105,,2,1,go,0.39999999999999997,1.159,2.159,0.5951403779999964,017,Scanner,R,2,2019_Sep_04_0939,SST,3.0.7,60.163591664261546,
go,sst_images/Left_Arrow.bmp,None,1,824,None,0,106,106,106,,1,1,go,0.39999999999999997,0.824,1.8239999999999998,0.4938278790004915,017,Scanner,R,2,2019_Sep_04_0939,SST,3.0.7,60.163591664261546,
go,sst_images/Right_Arrow.bmp,None,2,984,None,0,107,107,107,,2,1,go,0.39999999999999997,0.984,1.984,0.5276247840001815,017,Scanner,R,2,2019_Sep_04_0939,SST,3.0.7,60.163591664261546,
stop,sst_images/Right_Arrow.bmp,sst_images/Stop_Arrow.bmp,none,751,None,0,108,108,108,,2,0,stop,0.35,0.751,1.8734493760002586,0.5775506239997412,017,Scanner,R,2,2019_Sep_04_0939,SST,3.0.7,60.163591664261546,
go,sst_images/Left_Arrow.bmp,None,1,756,None,0,109,109,109,,1,1,go,0.35,0.756,1.756,0.5128938429998016,017,Scanner,R,2,2019_Sep_04_0939,SST,3.0.7,60.163591664261546,
go,sst_images/Right_Arrow.bmp,None,2,779,None,0,110,110,110,,2,1,go,0.35,0.779,1.779,0.5374001669997597,017,Scanner,R,2,2019_Sep_04_0939,SST,3.0.7,60.163591664261546,
go,sst_images/Left_Arrow.bmp,None,1,707,None,0,111,111,111,,1,1,go,0.35,0.707,1.7069999999999999,0.42661792199942283,017,Scanner,R,2,2019_Sep_04_0939,SST,3.0.7,60.163591664261546,
stop,sst_images/Left_Arrow.bmp,sst_images/Stop_Arrow.bmp,none,1248,None,0,112,112,112,,1,0,stop,0.3,1.248,2.3179475169998547,0.580052483000145,017,Scanner,R,2,2019_Sep_04_0939,SST,3.0.7,60.163591664261546,
go,sst_images/Right_Arrow.bmp,None,2,1173,None,0,113,113,113,,2,1,go,0.3,1.173,2.173,0.47127698300027987,017,Scanner,R,2,2019_Sep_04_0939,SST,3.0.7,60.163591664261546,
go,sst_images/Left_Arrow.bmp,None,1,870,None,0,114,114,114,,1,1,go,0.3,0.87,1.87,0.4440225050002482,017,Scanner,R,2,2019_Sep_04_0939,SST,3.0.7,60.163591664261546,
go,sst_images/Right_Arrow.bmp,None,2,1627,None,0,115,115,115,,2,1,go,0.3,1.627,2.627,0.4776366939995569,017,Scanner,R,2,2019_Sep_04_0939,SST,3.0.7,60.163591664261546,
stop,sst_images/Left_Arrow.bmp,sst_images/Stop_Arrow.bmp,none,765,None,0,116,116,116,,1,0,stop,0.25,0.765,1.8145922449996217,0.5504077550003785,017,Scanner,R,2,2019_Sep_04_0939,SST,3.0.7,60.163591664261546,
go,sst_images/Left_Arrow.bmp,None,1,813,None,0,117,117,117,,1,1,go,0.25,0.813,1.813,0.5364528360005352,017,Scanner,R,2,2019_Sep_04_0939,SST,3.0.7,60.163591664261546,
go,sst_images/Right_Arrow.bmp,None,2,788,None,0,118,118,118,,2,1,go,0.25,0.788,1.788,0.542922083999656,017,Scanner,R,2,2019_Sep_04_0939,SST,3.0.7,60.163591664261546,
go,sst_images/Left_Arrow.bmp,None,1,981,None,0,119,119,119,,1,1,go,0.25,0.981,1.9809999999999999,0.46957411499988666,017,Scanner,R,2,2019_Sep_04_0939,SST,3.0.7,60.163591664261546,
go,sst_images/Right_Arrow.bmp,None,2,1274,None,0,120,120,120,,2,1,go,0.25,1.274,2.274,0.40286015200035763,017,Scanner,R,2,2019_Sep_04_0939,SST,3.0.7,60.163591664261546,
go,sst_images/Right_Arrow.bmp,None,2,836,None,0,121,121,121,,1,0,go,0.25,0.836,1.8359999999999999,0.42642539400003443,017,Scanner,R,2,2019_Sep_04_0939,SST,3.0.7,60.163591664261546,
go,sst_images/Left_Arrow.bmp,None,1,1024,None,0,122,122,122,,1,1,go,0.25,1.024,2.024,0.494840703000591,017,Scanner,R,2,2019_Sep_04_0939,SST,3.0.7,60.163591664261546,
go,sst_images/Left_Arrow.bmp,None,1,859,None,0,123,123,123,,1,1,go,0.25,0.859,1.859,0.6782020700002249,017,Scanner,R,2,2019_Sep_04_0939,SST,3.0.7,60.163591664261546,
go,sst_images/Left_Arrow.bmp,None,1,755,None,0,124,124,124,,1,1,go,0.25,0.755,1.755,0.5284282740003619,017,Scanner,R,2,2019_Sep_04_0939,SST,3.0.7,60.163591664261546,
stop,sst_images/Right_Arrow.bmp,sst_images/Stop_Arrow.bmp,none,829,None,0,125,125,125,,None,1,stop,0.3,0.829,1.829,,017,Scanner,R,2,2019_Sep_04_0939,SST,3.0.7,60.163591664261546,
go,sst_images/Right_Arrow.bmp,None,2,701,None,0,126,126,126,,2,1,go,0.3,0.701,1.701,0.5765966030003256,017,Scanner,R,2,2019_Sep_04_0939,SST,3.0.7,60.163591664261546,
go,sst_images/Left_Arrow.bmp,None,1,772,None,0,127,127,127,,1,1,go,0.3,0.772,1.772,0.5447821280004064,017,Scanner,R,2,2019_Sep_04_0939,SST,3.0.7,60.163591664261546,
go,sst_images/Left_Arrow.bmp,None,1,724,None,0,128,128,128,,1,1,go,0.3,0.724,1.724,0.5938726559998031,017,Scanner,R,2,2019_Sep_04_0939,SST,3.0.7,60.163591664261546,
stop,sst_images/Left_Arrow.bmp,sst_images/Stop_Arrow.bmp,none,953,None,0,129,129,129,,None,1,stop,0.35,0.953,1.953,,017,Scanner,R,2,2019_Sep_04_0939,SST,3.0.7,60.163591664261546,
go,sst_images/Left_Arrow.bmp,None,1,805,None,0,130,130,130,,1,1,go,0.35,0.805,1.8050000000000002,0.5919141610002043,017,Scanner,R,2,2019_Sep_04_0939,SST,3.0.7,60.163591664261546,
go,sst_images/Right_Arrow.bmp,None,2,745,None,0,131,131,131,,2,1,go,0.35,0.745,1.745,0.5099659040006372,017,Scanner,R,2,2019_Sep_04_0939,SST,3.0.7,60.163591664261546,
go,sst_images/Left_Arrow.bmp,None,1,712,None,0,132,132,132,,1,1,go,0.35,0.712,1.712,0.6251367770000797,017,Scanner,R,2,2019_Sep_04_0939,SST,3.0.7,60.163591664261546,
stop,sst_images/Left_Arrow.bmp,sst_images/Stop_Arrow.bmp,none,726,None,0,133,133,133,,1,0,stop,0.3,0.726,1.8349973710008054,0.5410026289991947,017,Scanner,R,2,2019_Sep_04_0939,SST,3.0.7,60.163591664261546,
go,sst_images/Left_Arrow.bmp,None,1,707,None,0,134,134,134,,1,1,go,0.3,0.707,1.7069999999999999,0.5714892389996749,017,Scanner,R,2,2019_Sep_04_0939,SST,3.0.7,60.163591664261546,
go,sst_images/Right_Arrow.bmp,None,2,739,None,0,135,135,135,,2,1,go,0.3,0.739,1.7389999999999999,0.5699342509997223,017,Scanner,R,2,2019_Sep_04_0939,SST,3.0.7,60.163591664261546,
stop,sst_images/Right_Arrow.bmp,sst_images/Stop_Arrow.bmp,none,1285,None,0,136,136,136,,None,1,stop,0.35,1.285,2.2849999999999997,,017,Scanner,R,2,2019_Sep_04_0939,SST,3.0.7,60.163591664261546,
go,sst_images/Right_Arrow.bmp,None,2,1046,None,0,137,137,137,,2,1,go,0.35,1.046,2.0460000000000003,0.8409355700005108,017,Scanner,R,2,2019_Sep_04_0939,SST,3.0.7,60.163591664261546,
go,sst_images/Left_Arrow.bmp,None,1,797,None,0,138,138,138,,1,1,go,0.35,0.797,1.7970000000000002,0.5757478740006263,017,Scanner,R,2,2019_Sep_04_0939,SST,3.0.7,60.163591664261546,
go,sst_images/Right_Arrow.bmp,None,2,1541,None,0,139,139,139,,None,0,go,0.35,1.541,2.541,,017,Scanner,R,2,2019_Sep_04_0939,SST,3.0.7,60.163591664261546,
go,sst_images/Left_Arrow.bmp,None,1,749,None,0,140,140,140,,1,1,go,0.35,0.749,1.749,0.5089593370003058,017,Scanner,R,2,2019_Sep_04_0939,SST,3.0.7,60.163591664261546,
stop,sst_images/Left_Arrow.bmp,sst_images/Stop_Arrow.bmp,none,1260,None,0,141,141,141,,1,0,stop,0.3,1.26,2.302117668000537,0.6078823319994626,017,Scanner,R,2,2019_Sep_04_0939,SST,3.0.7,60.163591664261546,
go,sst_images/Left_Arrow.bmp,None,1,864,None,0,142,142,142,,1,1,go,0.3,0.864,1.8639999999999999,0.558966151000277,017,Scanner,R,2,2019_Sep_04_0939,SST,3.0.7,60.163591664261546,
go,sst_images/Right_Arrow.bmp,None,2,758,None,0,143,143,143,,2,1,go,0.3,0.758,1.758,0.5225922250001531,017,Scanner,R,2,2019_Sep_04_0939,SST,3.0.7,60.163591664261546,
go,sst_images/Left_Arrow.bmp,None,1,764,None,0,144,144,144,,1,1,go,0.3,0.764,1.764,0.8219377989998975,017,Scanner,R,2,2019_Sep_04_0939,SST,3.0.7,60.163591664261546,
go,sst_images/Right_Arrow.bmp,None,2,769,None,0,145,145,145,,2,1,go,0.3,0.769,1.7690000000000001,0.6586421229994812,017,Scanner,R,2,2019_Sep_04_0939,SST,3.0.7,60.163591664261546,
stop,sst_images/Right_Arrow.bmp,sst_images/Stop_Arrow.bmp,none,892,None,0,146,146,146,,None,1,stop,0.35,0.892,1.8920000000000001,,017,Scanner,R,2,2019_Sep_04_0939,SST,3.0.7,60.163591664261546,
go,sst_images/Left_Arrow.bmp,None,1,1248,None,0,147,147,147,,1,1,go,0.35,1.248,2.248,0.5565144939992024,017,Scanner,R,2,2019_Sep_04_0939,SST,3.0.7,60.163591664261546,
go,sst_images/Right_Arrow.bmp,None,2,771,None,0,148,148,148,,2,1,go,0.35,0.771,1.771,0.6401443869999639,017,Scanner,R,2,2019_Sep_04_0939,SST,3.0.7,60.163591664261546,
go,sst_images/Right_Arrow.bmp,None,2,806,None,0,149,149,149,,2,1,go,0.35,0.806,1.806,0.673969782000313,017,Scanner,R,2,2019_Sep_04_0939,SST,3.0.7,60.163591664261546,
go,sst_images/Left_Arrow.bmp,None,1,1619,None,0,150,150,150,,1,1,go,0.35,1.619,2.6189999999999998,0.6701627190004729,017,Scanner,R,2,2019_Sep_04_0939,SST,3.0.7,60.163591664261546,
go,sst_images/Right_Arrow.bmp,None,2,801,None,0,151,151,151,,2,1,go,0.35,0.801,1.8010000000000002,0.5707675149997158,017,Scanner,R,2,2019_Sep_04_0939,SST,3.0.7,60.163591664261546,
stop,sst_images/Right_Arrow.bmp,sst_images/Stop_Arrow.bmp,none,758,None,0,152,152,152,,None,1,stop,0.39999999999999997,0.758,1.7580000000000002,,017,Scanner,R,2,2019_Sep_04_0939,SST,3.0.7,60.163591664261546,
go,sst_images/Left_Arrow.bmp,None,1,890,None,0,153,153,153,,1,1,go,0.39999999999999997,0.89,1.8900000000000001,0.6725175060000765,017,Scanner,R,2,2019_Sep_04_0939,SST,3.0.7,60.163591664261546,
go,sst_images/Right_Arrow.bmp,None,2,701,None,0,154,154,154,,2,1,go,0.39999999999999997,0.701,1.701,0.5194046360002176,017,Scanner,R,2,2019_Sep_04_0939,SST,3.0.7,60.163591664261546,
go,sst_images/Left_Arrow.bmp,None,1,797,None,0,155,155,155,,1,1,go,0.39999999999999997,0.797,1.7970000000000002,0.5209781220000878,017,Scanner,R,2,2019_Sep_04_0939,SST,3.0.7,60.163591664261546,
go,sst_images/Right_Arrow.bmp,None,2,789,None,0,156,156,156,,2,1,go,0.39999999999999997,0.789,1.7890000000000001,0.7193087249997916,017,Scanner,R,2,2019_Sep_04_0939,SST,3.0.7,60.163591664261546,
stop,sst_images/Left_Arrow.bmp,sst_images/Stop_Arrow.bmp,none,757,None,0,157,157,157,,1,0,stop,0.35,0.757,1.76859928300076,0.6884007169992401,017,Scanner,R,2,2019_Sep_04_0939,SST,3.0.7,60.163591664261546,
go,sst_images/Left_Arrow.bmp,None,1,729,None,0,158,158,158,,1,1,go,0.35,0.729,1.729,0.5218998949994784,017,Scanner,R,2,2019_Sep_04_0939,SST,3.0.7,60.163591664261546,
go,sst_images/Left_Arrow.bmp,None,1,1020,None,0,159,159,159,,1,1,go,0.35,1.02,2.02,0.5213907890001792,017,Scanner,R,2,2019_Sep_04_0939,SST,3.0.7,60.163591664261546,
go,sst_images/Right_Arrow.bmp,None,2,848,None,0,160,160,160,,2,1,go,0.35,0.848,1.8479999999999999,0.7219051040001432,017,Scanner,R,2,2019_Sep_04_0939,SST,3.0.7,60.163591664261546,
go,sst_images/Left_Arrow.bmp,None,1,1726,None,0,161,161,161,,1,1,go,0.35,1.726,2.726,0.5392094399994676,017,Scanner,R,2,2019_Sep_04_0939,SST,3.0.7,60.163591664261546,
go,sst_images/Right_Arrow.bmp,None,2,789,None,0,162,162,162,,2,1,go,0.35,0.789,1.7890000000000001,0.5048506680004721,017,Scanner,R,2,2019_Sep_04_0939,SST,3.0.7,60.163591664261546,
go,sst_images/Right_Arrow.bmp,None,2,704,None,0,163,163,163,,2,1,go,0.35,0.704,1.704,0.621787239000696,017,Scanner,R,2,2019_Sep_04_0939,SST,3.0.7,60.163591664261546,
go,sst_images/Right_Arrow.bmp,None,2,789,None,0,164,164,164,,2,1,go,0.35,0.789,1.7890000000000001,0.9567940819997602,017,Scanner,R,2,2019_Sep_04_0939,SST,3.0.7,60.163591664261546,
stop,sst_images/Left_Arrow.bmp,sst_images/Stop_Arrow.bmp,none,724,None,0,165,165,165,,1,0,stop,0.3,0.724,1.9178501610005914,0.45614983899940853,017,Scanner,R,2,2019_Sep_04_0939,SST,3.0.7,60.163591664261546,
go,sst_images/Left_Arrow.bmp,None,1,1048,None,0,166,166,166,,2,0,go,0.3,1.048,2.048,0.47312043700003414,017,Scanner,R,2,2019_Sep_04_0939,SST,3.0.7,60.163591664261546,
go,sst_images/Right_Arrow.bmp,None,2,754,None,0,167,167,167,,2,1,go,0.3,0.754,1.754,0.6556664370000362,017,Scanner,R,2,2019_Sep_04_0939,SST,3.0.7,60.163591664261546,
go,sst_images/Right_Arrow.bmp,None,2,1285,None,0,168,168,168,,2,1,go,0.3,1.285,2.285,0.5375475060000099,017,Scanner,R,2,2019_Sep_04_0939,SST,3.0.7,60.163591664261546,
go,sst_images/Left_Arrow.bmp,None,1,992,None,0,169,169,169,,1,1,go,0.3,0.992,1.992,0.504757315000461,017,Scanner,R,2,2019_Sep_04_0939,SST,3.0.7,60.163591664261546,
stop,sst_images/Left_Arrow.bmp,sst_images/Stop_Arrow.bmp,none,797,None,0,170,170,170,,None,1,stop,0.35,0.797,1.7970000000000002,,017,Scanner,R,2,2019_Sep_04_0939,SST,3.0.7,60.163591664261546,
go,sst_images/Right_Arrow.bmp,None,2,1200,None,0,171,171,171,,2,1,go,0.35,1.2,2.2,0.6717199320000873,017,Scanner,R,2,2019_Sep_04_0939,SST,3.0.7,60.163591664261546,
go,sst_images/Right_Arrow.bmp,None,2,763,None,0,172,172,172,,2,1,go,0.35,0.763,1.763,0.6702567689999341,017,Scanner,R,2,2019_Sep_04_0939,SST,3.0.7,60.163591664261546,
go,sst_images/Right_Arrow.bmp,None,2,785,None,0,173,173,173,,2,1,go,0.35,0.785,1.7850000000000001,0.7201239509995503,017,Scanner,R,2,2019_Sep_04_0939,SST,3.0.7,60.163591664261546,
stop,sst_images/Right_Arrow.bmp,sst_images/Stop_Arrow.bmp,none,995,None,0,174,174,174,,None,1,stop,0.39999999999999997,0.995,1.9949999999999999,,017,Scanner,R,2,2019_Sep_04_0939,SST,3.0.7,60.163591664261546,
go,sst_images/Left_Arrow.bmp,None,1,1323,None,0,175,175,175,,1,1,go,0.39999999999999997,1.323,2.323,0.621930883999994,017,Scanner,R,2,2019_Sep_04_0939,SST,3.0.7,60.163591664261546,
go,sst_images/Right_Arrow.bmp,None,2,718,None,0,176,176,176,,None,0,go,0.39999999999999997,0.718,1.718,,017,Scanner,R,2,2019_Sep_04_0939,SST,3.0.7,60.163591664261546,
stop,sst_images/Left_Arrow.bmp,sst_images/Stop_Arrow.bmp,none,814,None,0,177,177,177,,None,1,stop,0.44999999999999996,0.814,1.8139999999999998,,017,Scanner,R,2,2019_Sep_04_0939,SST,3.0.7,60.163591664261546,
go,sst_images/Left_Arrow.bmp,None,1,729,None,0,178,178,178,,1,1,go,0.44999999999999996,0.729,1.729,0.6878546550005922,017,Scanner,R,2,2019_Sep_04_0939,SST,3.0.7,60.163591664261546,
go,sst_images/Right_Arrow.bmp,None,2,832,5846.0,0,179,179,179,,2,1,go,0.44999999999999996,0.832,1.8319999999999999,0.567978638000568,017,Scanner,R,2,2019_Sep_04_0939,SST,3.0.7,60.163591664261546,
