trial_type,arrow_1,arrow_2,corrAns,jitter,run_end_fixation,trials.thisRepN,trials.thisTrialN,trials.thisN,trials.thisIndex,randomized TrialOrder,key_response.keys,key_response.corr,key_response.rt,trial_t.routineEndVal,ss_delay,iti_duration,SOA,participant,prac_or_scan,handedness,run,date,expName,psychopyVersion,frameRate,
go,sst_images/Left_Arrow.bmp,None,1,1295,None,0,0,0,0,3,1,1,0.6185932379448786,go,0.05,1.295,2.295,018,Scanner,R,1,2019_Sep_02_1245,SST,3.0.7,60.05748425251145,
go,sst_images/Right_Arrow.bmp,None,2,792,None,0,1,1,1,,2,1,0.3857977989828214,go,0.05,0.792,1.792,018,Scanner,R,1,2019_Sep_02_1245,SST,3.0.7,60.05748425251145,
stop,sst_images/Right_Arrow.bmp,sst_images/Stop_Arrow.bmp,none,738,None,0,2,2,2,,None,1,,stop,0.1,0.738,1.738,018,Scanner,R,1,2019_Sep_02_1245,SST,3.0.7,60.05748425251145,
go,sst_images/Right_Arrow.bmp,None,2,750,None,0,3,3,3,,2,1,0.41926143696764484,go,0.1,0.75,1.75,018,Scanner,R,1,2019_Sep_02_1245,SST,3.0.7,60.05748425251145,
go,sst_images/Left_Arrow.bmp,None,1,869,None,0,4,4,4,,1,1,0.455826657009311,go,0.1,0.869,1.869,018,Scanner,R,1,2019_Sep_02_1245,SST,3.0.7,60.05748425251145,
go,sst_images/Left_Arrow.bmp,None,1,732,None,0,5,5,5,,1,1,0.43753142503555864,go,0.1,0.732,1.732,018,Scanner,R,1,2019_Sep_02_1245,SST,3.0.7,60.05748425251145,
stop,sst_images/Left_Arrow.bmp,sst_images/Stop_Arrow.bmp,none,721,None,0,6,6,6,,None,1,,stop,0.15000000000000002,0.721,1.721,018,Scanner,R,1,2019_Sep_02_1245,SST,3.0.7,60.05748425251145,
go,sst_images/Right_Arrow.bmp,None,2,769,None,0,7,7,7,,2,1,0.3706846179557033,go,0.15000000000000002,0.769,1.7690000000000001,018,Scanner,R,1,2019_Sep_02_1245,SST,3.0.7,60.05748425251145,
go,sst_images/Left_Arrow.bmp,None,1,708,None,0,8,8,8,,1,1,0.3865655729896389,go,0.15000000000000002,0.708,1.708,018,Scanner,R,1,2019_Sep_02_1245,SST,3.0.7,60.05748425251145,
go,sst_images/Right_Arrow.bmp,None,2,838,None,0,9,9,9,,2,1,0.537846767983865,go,0.15000000000000002,0.838,1.838,018,Scanner,R,1,2019_Sep_02_1245,SST,3.0.7,60.05748425251145,
go,sst_images/Right_Arrow.bmp,None,2,712,None,0,10,10,10,,2,1,0.470168742001988,go,0.15000000000000002,0.712,1.712,018,Scanner,R,1,2019_Sep_02_1245,SST,3.0.7,60.05748425251145,
go,sst_images/Left_Arrow.bmp,None,1,707,None,0,11,11,11,,1,1,0.4199912539916113,go,0.15000000000000002,0.707,1.7069999999999999,018,Scanner,R,1,2019_Sep_02_1245,SST,3.0.7,60.05748425251145,
stop,sst_images/Left_Arrow.bmp,sst_images/Stop_Arrow.bmp,none,711,None,0,12,12,12,,1,0,0.47136969200801104,stop,0.10000000000000002,0.711,1.6896303079919888,018,Scanner,R,1,2019_Sep_02_1245,SST,3.0.7,60.05748425251145,
go,sst_images/Right_Arrow.bmp,None,2,725,None,0,13,13,13,,2,1,0.4200520570157096,go,0.10000000000000002,0.725,1.725,018,Scanner,R,1,2019_Sep_02_1245,SST,3.0.7,60.05748425251145,
go,sst_images/Left_Arrow.bmp,None,1,771,None,0,14,14,14,,1,1,0.4042395939468406,go,0.10000000000000002,0.771,1.771,018,Scanner,R,1,2019_Sep_02_1245,SST,3.0.7,60.05748425251145,
go,sst_images/Left_Arrow.bmp,None,1,830,None,0,15,15,15,,1,1,0.47051849600393325,go,0.10000000000000002,0.83,1.83,018,Scanner,R,1,2019_Sep_02_1245,SST,3.0.7,60.05748425251145,
go,sst_images/Left_Arrow.bmp,None,1,797,None,0,16,16,16,,1,1,0.4532241519773379,go,0.10000000000000002,0.797,1.7970000000000002,018,Scanner,R,1,2019_Sep_02_1245,SST,3.0.7,60.05748425251145,
go,sst_images/Right_Arrow.bmp,None,2,832,None,0,17,17,17,,2,1,0.38702342397300526,go,0.10000000000000002,0.832,1.8319999999999999,018,Scanner,R,1,2019_Sep_02_1245,SST,3.0.7,60.05748425251145,
go,sst_images/Left_Arrow.bmp,None,1,762,None,0,18,18,18,,1,1,0.5025627950089984,go,0.10000000000000002,0.762,1.762,018,Scanner,R,1,2019_Sep_02_1245,SST,3.0.7,60.05748425251145,
stop,sst_images/Right_Arrow.bmp,sst_images/Stop_Arrow.bmp,none,717,None,0,19,19,19,,None,1,,stop,0.15000000000000002,0.717,1.717,018,Scanner,R,1,2019_Sep_02_1245,SST,3.0.7,60.05748425251145,
go,sst_images/Left_Arrow.bmp,None,1,728,None,0,20,20,20,,1,1,0.4380766380345449,go,0.15000000000000002,0.728,1.728,018,Scanner,R,1,2019_Sep_02_1245,SST,3.0.7,60.05748425251145,
go,sst_images/Right_Arrow.bmp,None,2,803,None,0,21,21,21,,2,1,0.40476693300297484,go,0.15000000000000002,0.803,1.803,018,Scanner,R,1,2019_Sep_02_1245,SST,3.0.7,60.05748425251145,
stop,sst_images/Right_Arrow.bmp,sst_images/Stop_Arrow.bmp,none,781,None,0,22,22,22,,2,0,0.4547060140175745,stop,0.10000000000000002,0.781,1.7762939859824256,018,Scanner,R,1,2019_Sep_02_1245,SST,3.0.7,60.05748425251145,
go,sst_images/Left_Arrow.bmp,None,1,961,None,0,23,23,23,,1,1,0.45263382798293605,go,0.10000000000000002,0.961,1.9609999999999999,018,Scanner,R,1,2019_Sep_02_1245,SST,3.0.7,60.05748425251145,
stop,sst_images/Left_Arrow.bmp,sst_images/Stop_Arrow.bmp,none,772,None,0,24,24,24,,None,1,,stop,0.15000000000000002,0.772,1.772,018,Scanner,R,1,2019_Sep_02_1245,SST,3.0.7,60.05748425251145,
go,sst_images/Right_Arrow.bmp,None,2,959,None,0,25,25,25,,2,1,0.38731926801847294,go,0.15000000000000002,0.959,1.959,018,Scanner,R,1,2019_Sep_02_1245,SST,3.0.7,60.05748425251145,
go,sst_images/Left_Arrow.bmp,None,1,1111,None,0,26,26,26,,1,1,0.4220712019596249,go,0.15000000000000002,1.111,2.1109999999999998,018,Scanner,R,1,2019_Sep_02_1245,SST,3.0.7,60.05748425251145,
go,sst_images/Right_Arrow.bmp,None,2,718,None,0,27,27,27,,2,1,0.3859043809934519,go,0.15000000000000002,0.718,1.718,018,Scanner,R,1,2019_Sep_02_1245,SST,3.0.7,60.05748425251145,
stop,sst_images/Right_Arrow.bmp,sst_images/Stop_Arrow.bmp,none,750,None,0,28,28,28,,2,0,0.4746320489794016,stop,0.10000000000000002,0.75,1.7253679510205984,018,Scanner,R,1,2019_Sep_02_1245,SST,3.0.7,60.05748425251145,
go,sst_images/Right_Arrow.bmp,None,2,768,None,0,29,29,29,,2,1,0.43617573694791645,go,0.10000000000000002,0.768,1.768,018,Scanner,R,1,2019_Sep_02_1245,SST,3.0.7,60.05748425251145,
go,sst_images/Left_Arrow.bmp,None,1,1426,None,0,30,30,30,,1,1,0.4038422800367698,go,0.10000000000000002,1.426,2.426,018,Scanner,R,1,2019_Sep_02_1245,SST,3.0.7,60.05748425251145,
go,sst_images/Right_Arrow.bmp,None,2,1700,None,0,31,31,31,,2,1,0.4194904350442812,go,0.10000000000000002,1.7,2.7,018,Scanner,R,1,2019_Sep_02_1245,SST,3.0.7,60.05748425251145,
go,sst_images/Right_Arrow.bmp,None,2,965,None,0,32,32,32,,2,1,0.5041843050275929,go,0.10000000000000002,0.965,1.9649999999999999,018,Scanner,R,1,2019_Sep_02_1245,SST,3.0.7,60.05748425251145,
go,sst_images/Left_Arrow.bmp,None,1,704,None,0,33,33,33,,1,1,0.437126217992045,go,0.10000000000000002,0.704,1.704,018,Scanner,R,1,2019_Sep_02_1245,SST,3.0.7,60.05748425251145,
go,sst_images/Right_Arrow.bmp,None,2,887,None,0,34,34,34,,2,1,0.5193174949963577,go,0.10000000000000002,0.887,1.887,018,Scanner,R,1,2019_Sep_02_1245,SST,3.0.7,60.05748425251145,
stop,sst_images/Right_Arrow.bmp,sst_images/Stop_Arrow.bmp,none,704,None,0,35,35,35,,None,1,,stop,0.15000000000000002,0.704,1.704,018,Scanner,R,1,2019_Sep_02_1245,SST,3.0.7,60.05748425251145,
go,sst_images/Left_Arrow.bmp,None,1,1431,None,0,36,36,36,,1,1,0.5374644930125214,go,0.15000000000000002,1.431,2.431,018,Scanner,R,1,2019_Sep_02_1245,SST,3.0.7,60.05748425251145,
go,sst_images/Left_Arrow.bmp,None,1,746,None,0,37,37,37,,1,1,0.5008119939593598,go,0.15000000000000002,0.746,1.746,018,Scanner,R,1,2019_Sep_02_1245,SST,3.0.7,60.05748425251145,
go,sst_images/Right_Arrow.bmp,None,2,709,None,0,38,38,38,,2,1,0.9046784419915639,go,0.15000000000000002,0.709,1.709,018,Scanner,R,1,2019_Sep_02_1245,SST,3.0.7,60.05748425251145,
stop,sst_images/Left_Arrow.bmp,sst_images/Stop_Arrow.bmp,none,894,None,0,39,39,39,,None,1,,stop,0.2,0.894,1.894,018,Scanner,R,1,2019_Sep_02_1245,SST,3.0.7,60.05748425251145,
go,sst_images/Right_Arrow.bmp,None,2,750,None,0,40,40,40,,2,1,0.6546106179594062,go,0.2,0.75,1.75,018,Scanner,R,1,2019_Sep_02_1245,SST,3.0.7,60.05748425251145,
go,sst_images/Left_Arrow.bmp,None,1,1139,None,0,41,41,41,,1,1,0.6221051170141436,go,0.2,1.139,2.1390000000000002,018,Scanner,R,1,2019_Sep_02_1245,SST,3.0.7,60.05748425251145,
go,sst_images/Left_Arrow.bmp,None,1,711,None,0,42,42,42,,1,1,0.6186919269966893,go,0.2,0.711,1.7109999999999999,018,Scanner,R,1,2019_Sep_02_1245,SST,3.0.7,60.05748425251145,
go,sst_images/Right_Arrow.bmp,None,2,738,None,0,43,43,43,,2,1,0.42089931800728664,go,0.2,0.738,1.738,018,Scanner,R,1,2019_Sep_02_1245,SST,3.0.7,60.05748425251145,
go,sst_images/Left_Arrow.bmp,None,1,706,None,0,44,44,44,,1,1,0.5162807989981957,go,0.2,0.706,1.706,018,Scanner,R,1,2019_Sep_02_1245,SST,3.0.7,60.05748425251145,
go,sst_images/Left_Arrow.bmp,None,1,1016,None,0,45,45,45,,1,1,0.553689703985583,go,0.2,1.016,2.016,018,Scanner,R,1,2019_Sep_02_1245,SST,3.0.7,60.05748425251145,
go,sst_images/Right_Arrow.bmp,None,2,1071,None,0,46,46,46,,1,0,0.7013147010002285,go,0.2,1.071,2.0709999999999997,018,Scanner,R,1,2019_Sep_02_1245,SST,3.0.7,60.05748425251145,
go,sst_images/Right_Arrow.bmp,None,2,913,None,0,47,47,47,,2,1,0.5029287099605426,go,0.2,0.913,1.913,018,Scanner,R,1,2019_Sep_02_1245,SST,3.0.7,60.05748425251145,
go,sst_images/Right_Arrow.bmp,None,2,941,None,0,48,48,48,,2,1,0.43744199303910136,go,0.2,0.941,1.9409999999999998,018,Scanner,R,1,2019_Sep_02_1245,SST,3.0.7,60.05748425251145,
go,sst_images/Left_Arrow.bmp,None,1,1253,None,0,49,49,49,,1,1,0.45488025998929515,go,0.2,1.253,2.253,018,Scanner,R,1,2019_Sep_02_1245,SST,3.0.7,60.05748425251145,
go,sst_images/Left_Arrow.bmp,None,1,1230,None,0,50,50,50,,1,1,0.43782635300885886,go,0.2,1.23,2.23,018,Scanner,R,1,2019_Sep_02_1245,SST,3.0.7,60.05748425251145,
go,sst_images/Left_Arrow.bmp,None,1,870,None,0,51,51,51,,1,1,0.5544615639955737,go,0.2,0.87,1.87,018,Scanner,R,1,2019_Sep_02_1245,SST,3.0.7,60.05748425251145,
go,sst_images/Right_Arrow.bmp,None,2,881,None,0,52,52,52,,2,1,0.4791794890188612,go,0.2,0.881,1.881,018,Scanner,R,1,2019_Sep_02_1245,SST,3.0.7,60.05748425251145,
stop,sst_images/Right_Arrow.bmp,sst_images/Stop_Arrow.bmp,none,954,None,0,53,53,53,,None,1,,stop,0.25,0.954,1.954,018,Scanner,R,1,2019_Sep_02_1245,SST,3.0.7,60.05748425251145,
go,sst_images/Right_Arrow.bmp,None,2,784,None,0,54,54,54,,2,1,0.42920234199846163,go,0.25,0.784,1.784,018,Scanner,R,1,2019_Sep_02_1245,SST,3.0.7,60.05748425251145,
go,sst_images/Left_Arrow.bmp,None,1,1789,None,0,55,55,55,,1,1,0.562944664969109,go,0.25,1.789,2.7889999999999997,018,Scanner,R,1,2019_Sep_02_1245,SST,3.0.7,60.05748425251145,
go,sst_images/Left_Arrow.bmp,None,1,919,None,0,56,56,56,,1,1,0.48798961198190227,go,0.25,0.919,1.919,018,Scanner,R,1,2019_Sep_02_1245,SST,3.0.7,60.05748425251145,
go,sst_images/Left_Arrow.bmp,None,1,1155,None,0,57,57,57,,1,1,0.45451123401289806,go,0.25,1.155,2.1550000000000002,018,Scanner,R,1,2019_Sep_02_1245,SST,3.0.7,60.05748425251145,
go,sst_images/Right_Arrow.bmp,None,2,716,None,0,58,58,58,,2,1,0.7295300310361199,go,0.25,0.716,1.716,018,Scanner,R,1,2019_Sep_02_1245,SST,3.0.7,60.05748425251145,
go,sst_images/Left_Arrow.bmp,None,1,791,None,0,59,59,59,,None,0,,go,0.25,0.791,1.791,018,Scanner,R,1,2019_Sep_02_1245,SST,3.0.7,60.05748425251145,
go,sst_images/Left_Arrow.bmp,None,1,786,None,0,60,60,60,,1,1,0.4699310350115411,go,0.25,0.786,1.786,018,Scanner,R,1,2019_Sep_02_1245,SST,3.0.7,60.05748425251145,
go,sst_images/Right_Arrow.bmp,None,2,987,None,0,61,61,61,,2,1,0.44481708499370143,go,0.25,0.987,1.987,018,Scanner,R,1,2019_Sep_02_1245,SST,3.0.7,60.05748425251145,
stop,sst_images/Left_Arrow.bmp,sst_images/Stop_Arrow.bmp,none,1076,None,0,62,62,62,,1,0,0.47082294995198026,stop,0.2,1.076,2.1551770500480196,018,Scanner,R,1,2019_Sep_02_1245,SST,3.0.7,60.05748425251145,
go,sst_images/Right_Arrow.bmp,None,2,957,None,0,63,63,63,,2,1,0.603539735020604,go,0.2,0.957,1.9569999999999999,018,Scanner,R,1,2019_Sep_02_1245,SST,3.0.7,60.05748425251145,
go,sst_images/Left_Arrow.bmp,None,1,1855,None,0,64,64,64,,None,0,,go,0.2,1.855,2.855,018,Scanner,R,1,2019_Sep_02_1245,SST,3.0.7,60.05748425251145,
go,sst_images/Right_Arrow.bmp,None,2,825,None,0,65,65,65,,2,1,0.40318064199527726,go,0.2,0.825,1.825,018,Scanner,R,1,2019_Sep_02_1245,SST,3.0.7,60.05748425251145,
go,sst_images/Left_Arrow.bmp,None,1,979,None,0,66,66,66,,1,1,0.38419127598172054,go,0.2,0.979,1.979,018,Scanner,R,1,2019_Sep_02_1245,SST,3.0.7,60.05748425251145,
go,sst_images/Right_Arrow.bmp,None,2,985,None,0,67,67,67,,2,1,0.38816879701334983,go,0.2,0.985,1.9849999999999999,018,Scanner,R,1,2019_Sep_02_1245,SST,3.0.7,60.05748425251145,
go,sst_images/Right_Arrow.bmp,None,2,1699,None,0,68,68,68,,2,1,0.38359783397754654,go,0.2,1.699,2.699,018,Scanner,R,1,2019_Sep_02_1245,SST,3.0.7,60.05748425251145,
go,sst_images/Left_Arrow.bmp,None,1,894,None,0,69,69,69,,1,1,0.4276375339832157,go,0.2,0.894,1.8940000000000001,018,Scanner,R,1,2019_Sep_02_1245,SST,3.0.7,60.05748425251145,
go,sst_images/Right_Arrow.bmp,None,2,730,None,0,70,70,70,,2,1,0.437977027031593,go,0.2,0.73,1.73,018,Scanner,R,1,2019_Sep_02_1245,SST,3.0.7,60.05748425251145,
go,sst_images/Left_Arrow.bmp,None,1,798,None,0,71,71,71,,1,1,0.4597128939931281,go,0.2,0.798,1.798,018,Scanner,R,1,2019_Sep_02_1245,SST,3.0.7,60.05748425251145,
stop,sst_images/Right_Arrow.bmp,sst_images/Stop_Arrow.bmp,none,790,None,0,72,72,72,,2,0,0.3874293980188668,stop,0.15000000000000002,0.79,1.9025706019811333,018,Scanner,R,1,2019_Sep_02_1245,SST,3.0.7,60.05748425251145,
go,sst_images/Right_Arrow.bmp,None,2,795,None,0,73,73,73,,2,1,0.45913433196255937,go,0.15000000000000002,0.795,1.795,018,Scanner,R,1,2019_Sep_02_1245,SST,3.0.7,60.05748425251145,
go,sst_images/Left_Arrow.bmp,None,1,778,None,0,74,74,74,,None,0,,go,0.15000000000000002,0.778,1.778,018,Scanner,R,1,2019_Sep_02_1245,SST,3.0.7,60.05748425251145,
stop,sst_images/Right_Arrow.bmp,sst_images/Stop_Arrow.bmp,none,833,None,0,75,75,75,,None,1,,stop,0.2,0.833,1.833,018,Scanner,R,1,2019_Sep_02_1245,SST,3.0.7,60.05748425251145,
go,sst_images/Right_Arrow.bmp,None,2,984,None,0,76,76,76,,2,1,0.4025080720311962,go,0.2,0.984,1.984,018,Scanner,R,1,2019_Sep_02_1245,SST,3.0.7,60.05748425251145,
go,sst_images/Right_Arrow.bmp,None,2,1092,None,0,77,77,77,,2,1,0.456172356964089,go,0.2,1.092,2.092,018,Scanner,R,1,2019_Sep_02_1245,SST,3.0.7,60.05748425251145,
go,sst_images/Left_Arrow.bmp,None,1,750,None,0,78,78,78,,1,1,0.5602868489804678,go,0.2,0.75,1.75,018,Scanner,R,1,2019_Sep_02_1245,SST,3.0.7,60.05748425251145,
go,sst_images/Left_Arrow.bmp,None,1,894,None,0,79,79,79,,1,1,0.6092887009726837,go,0.2,0.894,1.8940000000000001,018,Scanner,R,1,2019_Sep_02_1245,SST,3.0.7,60.05748425251145,
go,sst_images/Right_Arrow.bmp,None,2,724,None,0,80,80,80,,2,1,0.39361776295118034,go,0.2,0.724,1.724,018,Scanner,R,1,2019_Sep_02_1245,SST,3.0.7,60.05748425251145,
go,sst_images/Right_Arrow.bmp,None,2,788,None,0,81,81,81,,2,1,0.6748133090441115,go,0.2,0.788,1.788,018,Scanner,R,1,2019_Sep_02_1245,SST,3.0.7,60.05748425251145,
stop,sst_images/Left_Arrow.bmp,sst_images/Stop_Arrow.bmp,none,857,None,0,82,82,82,,1,0,0.4597393069998361,stop,0.15000000000000002,0.857,1.8972606930001639,018,Scanner,R,1,2019_Sep_02_1245,SST,3.0.7,60.05748425251145,
go,sst_images/Right_Arrow.bmp,None,2,909,None,0,83,83,83,,2,1,0.47090421995380893,go,0.15000000000000002,0.909,1.909,018,Scanner,R,1,2019_Sep_02_1245,SST,3.0.7,60.05748425251145,
go,sst_images/Left_Arrow.bmp,None,1,1176,None,0,84,84,84,,1,1,0.6849379320046864,go,0.15000000000000002,1.176,2.176,018,Scanner,R,1,2019_Sep_02_1245,SST,3.0.7,60.05748425251145,
go,sst_images/Left_Arrow.bmp,None,1,811,None,0,85,85,85,,1,1,0.6098853570292704,go,0.15000000000000002,0.811,1.811,018,Scanner,R,1,2019_Sep_02_1245,SST,3.0.7,60.05748425251145,
stop,sst_images/Right_Arrow.bmp,sst_images/Stop_Arrow.bmp,none,1155,None,0,86,86,86,,None,1,,stop,0.2,1.155,2.155,018,Scanner,R,1,2019_Sep_02_1245,SST,3.0.7,60.05748425251145,
go,sst_images/Right_Arrow.bmp,None,2,717,None,0,87,87,87,,None,0,,go,0.2,0.717,1.717,018,Scanner,R,1,2019_Sep_02_1245,SST,3.0.7,60.05748425251145,
go,sst_images/Left_Arrow.bmp,None,1,1064,None,0,88,88,88,,1,1,0.3576213209889829,go,0.2,1.064,2.064,018,Scanner,R,1,2019_Sep_02_1245,SST,3.0.7,60.05748425251145,
go,sst_images/Right_Arrow.bmp,None,2,954,None,0,89,89,89,,2,1,0.49131162697449327,go,0.2,0.954,1.954,018,Scanner,R,1,2019_Sep_02_1245,SST,3.0.7,60.05748425251145,
stop,sst_images/Right_Arrow.bmp,sst_images/Stop_Arrow.bmp,none,946,None,0,90,90,90,,2,0,0.5241359230130911,stop,0.15000000000000002,0.946,1.9218640769869089,018,Scanner,R,1,2019_Sep_02_1245,SST,3.0.7,60.05748425251145,
go,sst_images/Left_Arrow.bmp,None,1,1146,None,0,91,91,91,,1,1,0.543160569970496,go,0.15000000000000002,1.146,2.146,018,Scanner,R,1,2019_Sep_02_1245,SST,3.0.7,60.05748425251145,
go,sst_images/Right_Arrow.bmp,None,2,843,None,0,92,92,92,,None,0,,go,0.15000000000000002,0.843,1.843,018,Scanner,R,1,2019_Sep_02_1245,SST,3.0.7,60.05748425251145,
go,sst_images/Left_Arrow.bmp,None,1,1717,None,0,93,93,93,,1,1,0.38666205998742953,go,0.15000000000000002,1.717,2.717,018,Scanner,R,1,2019_Sep_02_1245,SST,3.0.7,60.05748425251145,
go,sst_images/Left_Arrow.bmp,None,1,745,None,0,94,94,94,,1,1,0.4725235030055046,go,0.15000000000000002,0.745,1.745,018,Scanner,R,1,2019_Sep_02_1245,SST,3.0.7,60.05748425251145,
go,sst_images/Left_Arrow.bmp,None,1,1658,None,0,95,95,95,,1,1,0.5079964870237745,go,0.15000000000000002,1.658,2.658,018,Scanner,R,1,2019_Sep_02_1245,SST,3.0.7,60.05748425251145,
go,sst_images/Right_Arrow.bmp,None,2,704,None,0,96,96,96,,2,1,0.5377627840498462,go,0.15000000000000002,0.704,1.704,018,Scanner,R,1,2019_Sep_02_1245,SST,3.0.7,60.05748425251145,
stop,sst_images/Left_Arrow.bmp,sst_images/Stop_Arrow.bmp,none,881,None,0,97,97,97,,None,1,,stop,0.2,0.881,1.881,018,Scanner,R,1,2019_Sep_02_1245,SST,3.0.7,60.05748425251145,
go,sst_images/Left_Arrow.bmp,None,1,848,None,0,98,98,98,,None,0,,go,0.2,0.848,1.8479999999999999,018,Scanner,R,1,2019_Sep_02_1245,SST,3.0.7,60.05748425251145,
go,sst_images/Right_Arrow.bmp,None,2,730,None,0,99,99,99,,None,0,,go,0.2,0.73,1.73,018,Scanner,R,1,2019_Sep_02_1245,SST,3.0.7,60.05748425251145,
go,sst_images/Right_Arrow.bmp,None,2,1039,None,0,100,100,100,,2,1,0.5074220530223101,go,0.2,1.039,2.0389999999999997,018,Scanner,R,1,2019_Sep_02_1245,SST,3.0.7,60.05748425251145,
go,sst_images/Left_Arrow.bmp,None,1,1855,None,0,101,101,101,,1,1,0.41832356300437823,go,0.2,1.855,2.855,018,Scanner,R,1,2019_Sep_02_1245,SST,3.0.7,60.05748425251145,
stop,sst_images/Left_Arrow.bmp,sst_images/Stop_Arrow.bmp,none,772,None,0,102,102,102,,1,0,0.4025534850079566,stop,0.15000000000000002,0.772,1.8694465149920434,018,Scanner,R,1,2019_Sep_02_1245,SST,3.0.7,60.05748425251145,
go,sst_images/Right_Arrow.bmp,None,2,1076,None,0,103,103,103,,2,1,0.4380411399761215,go,0.15000000000000002,1.076,2.076,018,Scanner,R,1,2019_Sep_02_1245,SST,3.0.7,60.05748425251145,
go,sst_images/Right_Arrow.bmp,None,2,857,None,0,104,104,104,,2,1,0.3895943320239894,go,0.15000000000000002,0.857,1.857,018,Scanner,R,1,2019_Sep_02_1245,SST,3.0.7,60.05748425251145,
go,sst_images/Left_Arrow.bmp,None,1,815,None,0,105,105,105,,1,1,0.4053281300002709,go,0.15000000000000002,0.815,1.815,018,Scanner,R,1,2019_Sep_02_1245,SST,3.0.7,60.05748425251145,
stop,sst_images/Right_Arrow.bmp,sst_images/Stop_Arrow.bmp,none,1053,None,0,106,106,106,,2,0,0.4214758789748885,stop,0.10000000000000002,1.053,2.081524121025111,018,Scanner,R,1,2019_Sep_02_1245,SST,3.0.7,60.05748425251145,
go,sst_images/Left_Arrow.bmp,None,1,778,None,0,107,107,107,,1,1,0.5070305389817804,go,0.10000000000000002,0.778,1.778,018,Scanner,R,1,2019_Sep_02_1245,SST,3.0.7,60.05748425251145,
go,sst_images/Right_Arrow.bmp,None,2,1337,None,0,108,108,108,,2,1,0.6726791189867072,go,0.10000000000000002,1.337,2.3369999999999997,018,Scanner,R,1,2019_Sep_02_1245,SST,3.0.7,60.05748425251145,
go,sst_images/Right_Arrow.bmp,None,2,758,None,0,109,109,109,,2,1,0.5551759759546258,go,0.10000000000000002,0.758,1.758,018,Scanner,R,1,2019_Sep_02_1245,SST,3.0.7,60.05748425251145,
go,sst_images/Left_Arrow.bmp,None,1,978,None,0,110,110,110,,None,0,,go,0.10000000000000002,0.978,1.978,018,Scanner,R,1,2019_Sep_02_1245,SST,3.0.7,60.05748425251145,
stop,sst_images/Left_Arrow.bmp,sst_images/Stop_Arrow.bmp,none,728,None,0,111,111,111,,None,1,,stop,0.15000000000000002,0.728,1.728,018,Scanner,R,1,2019_Sep_02_1245,SST,3.0.7,60.05748425251145,
go,sst_images/Right_Arrow.bmp,None,2,895,None,0,112,112,112,,2,1,0.437348400009796,go,0.15000000000000002,0.895,1.895,018,Scanner,R,1,2019_Sep_02_1245,SST,3.0.7,60.05748425251145,
go,sst_images/Left_Arrow.bmp,None,1,869,None,0,113,113,113,,1,1,0.4058218499994837,go,0.15000000000000002,0.869,1.869,018,Scanner,R,1,2019_Sep_02_1245,SST,3.0.7,60.05748425251145,
stop,sst_images/Left_Arrow.bmp,sst_images/Stop_Arrow.bmp,none,736,None,0,114,114,114,,None,1,,stop,0.2,0.736,1.736,018,Scanner,R,1,2019_Sep_02_1245,SST,3.0.7,60.05748425251145,
go,sst_images/Right_Arrow.bmp,None,2,1150,None,0,115,115,115,,2,1,0.8212901229853742,go,0.2,1.15,2.15,018,Scanner,R,1,2019_Sep_02_1245,SST,3.0.7,60.05748425251145,
stop,sst_images/Right_Arrow.bmp,sst_images/Stop_Arrow.bmp,none,830,None,0,116,116,116,,None,1,,stop,0.25,0.83,1.8299999999999998,018,Scanner,R,1,2019_Sep_02_1245,SST,3.0.7,60.05748425251145,
go,sst_images/Left_Arrow.bmp,None,1,837,None,0,117,117,117,,1,1,0.902610138989985,go,0.25,0.837,1.837,018,Scanner,R,1,2019_Sep_02_1245,SST,3.0.7,60.05748425251145,
go,sst_images/Right_Arrow.bmp,None,2,851,None,0,118,118,118,,2,1,0.4702338229981251,go,0.25,0.851,1.851,018,Scanner,R,1,2019_Sep_02_1245,SST,3.0.7,60.05748425251145,
go,sst_images/Left_Arrow.bmp,None,1,1031,None,0,119,119,119,,1,1,0.5039380299858749,go,0.25,1.031,2.0309999999999997,018,Scanner,R,1,2019_Sep_02_1245,SST,3.0.7,60.05748425251145,
stop,sst_images/Left_Arrow.bmp,sst_images/Stop_Arrow.bmp,none,735,None,0,120,120,120,,1,0,0.5032817010069266,stop,0.2,0.735,1.7817182989930733,018,Scanner,R,1,2019_Sep_02_1245,SST,3.0.7,60.05748425251145,
go,sst_images/Right_Arrow.bmp,None,2,1006,None,0,121,121,121,,2,1,0.45472553896252066,go,0.2,1.006,2.0060000000000002,018,Scanner,R,1,2019_Sep_02_1245,SST,3.0.7,60.05748425251145,
go,sst_images/Left_Arrow.bmp,None,1,953,None,0,122,122,122,,1,1,0.7202708760160021,go,0.2,0.953,1.9529999999999998,018,Scanner,R,1,2019_Sep_02_1245,SST,3.0.7,60.05748425251145,
stop,sst_images/Right_Arrow.bmp,sst_images/Stop_Arrow.bmp,none,887,None,0,123,123,123,,None,1,,stop,0.25,0.887,1.887,018,Scanner,R,1,2019_Sep_02_1245,SST,3.0.7,60.05748425251145,
go,sst_images/Right_Arrow.bmp,None,2,766,None,0,124,124,124,,2,1,0.40489870798774064,go,0.25,0.766,1.766,018,Scanner,R,1,2019_Sep_02_1245,SST,3.0.7,60.05748425251145,
go,sst_images/Left_Arrow.bmp,None,1,978,None,0,125,125,125,,1,1,0.43868686398491263,go,0.25,0.978,1.978,018,Scanner,R,1,2019_Sep_02_1245,SST,3.0.7,60.05748425251145,
go,sst_images/Right_Arrow.bmp,None,2,734,None,0,126,126,126,,2,1,0.41969799995422363,go,0.25,0.734,1.734,018,Scanner,R,1,2019_Sep_02_1245,SST,3.0.7,60.05748425251145,
go,sst_images/Right_Arrow.bmp,None,2,833,None,0,127,127,127,,2,1,0.4879444329999387,go,0.25,0.833,1.833,018,Scanner,R,1,2019_Sep_02_1245,SST,3.0.7,60.05748425251145,
go,sst_images/Left_Arrow.bmp,None,1,876,None,0,128,128,128,,1,1,0.6214183029951528,go,0.25,0.876,1.876,018,Scanner,R,1,2019_Sep_02_1245,SST,3.0.7,60.05748425251145,
go,sst_images/Left_Arrow.bmp,None,1,1001,None,0,129,129,129,,None,0,,go,0.25,1.001,2.001,018,Scanner,R,1,2019_Sep_02_1245,SST,3.0.7,60.05748425251145,
go,sst_images/Left_Arrow.bmp,None,1,795,None,0,130,130,130,,1,1,0.47147884796140715,go,0.25,0.795,1.795,018,Scanner,R,1,2019_Sep_02_1245,SST,3.0.7,60.05748425251145,
stop,sst_images/Right_Arrow.bmp,sst_images/Stop_Arrow.bmp,none,790,None,0,131,131,131,,None,1,,stop,0.3,0.79,1.79,018,Scanner,R,1,2019_Sep_02_1245,SST,3.0.7,60.05748425251145,
go,sst_images/Right_Arrow.bmp,None,2,717,None,0,132,132,132,,None,0,,go,0.3,0.717,1.717,018,Scanner,R,1,2019_Sep_02_1245,SST,3.0.7,60.05748425251145,
go,sst_images/Left_Arrow.bmp,None,1,767,None,0,133,133,133,,None,0,,go,0.3,0.767,1.767,018,Scanner,R,1,2019_Sep_02_1245,SST,3.0.7,60.05748425251145,
go,sst_images/Left_Arrow.bmp,None,1,785,None,0,134,134,134,,None,0,,go,0.3,0.785,1.7850000000000001,018,Scanner,R,1,2019_Sep_02_1245,SST,3.0.7,60.05748425251145,
go,sst_images/Left_Arrow.bmp,None,1,1589,None,0,135,135,135,,1,1,0.48594692698679864,go,0.3,1.589,2.589,018,Scanner,R,1,2019_Sep_02_1245,SST,3.0.7,60.05748425251145,
go,sst_images/Right_Arrow.bmp,None,2,741,None,0,136,136,136,,2,1,0.40313876303844154,go,0.3,0.741,1.741,018,Scanner,R,1,2019_Sep_02_1245,SST,3.0.7,60.05748425251145,
stop,sst_images/Left_Arrow.bmp,sst_images/Stop_Arrow.bmp,none,809,None,0,137,137,137,,1,0,0.404684815031942,stop,0.25,0.809,2.0043151849680583,018,Scanner,R,1,2019_Sep_02_1245,SST,3.0.7,60.05748425251145,
go,sst_images/Left_Arrow.bmp,None,1,708,None,0,138,138,138,,1,1,0.4041323679848574,go,0.25,0.708,1.708,018,Scanner,R,1,2019_Sep_02_1245,SST,3.0.7,60.05748425251145,
go,sst_images/Left_Arrow.bmp,None,1,914,None,0,139,139,139,,1,1,0.42005126900039613,go,0.25,0.914,1.9140000000000001,018,Scanner,R,1,2019_Sep_02_1245,SST,3.0.7,60.05748425251145,
go,sst_images/Right_Arrow.bmp,None,2,722,None,0,140,140,140,,2,1,0.40291381400311366,go,0.25,0.722,1.722,018,Scanner,R,1,2019_Sep_02_1245,SST,3.0.7,60.05748425251145,
go,sst_images/Right_Arrow.bmp,None,2,750,None,0,141,141,141,,2,1,0.4035184350213967,go,0.25,0.75,1.75,018,Scanner,R,1,2019_Sep_02_1245,SST,3.0.7,60.05748425251145,
go,sst_images/Left_Arrow.bmp,None,1,1433,None,0,142,142,142,,1,1,0.381399996986147,go,0.25,1.433,2.433,018,Scanner,R,1,2019_Sep_02_1245,SST,3.0.7,60.05748425251145,
go,sst_images/Right_Arrow.bmp,None,2,712,None,0,143,143,143,,2,1,0.3685409260215238,go,0.25,0.712,1.712,018,Scanner,R,1,2019_Sep_02_1245,SST,3.0.7,60.05748425251145,
go,sst_images/Left_Arrow.bmp,None,1,759,None,0,144,144,144,,1,1,0.3862499989918433,go,0.25,0.759,1.759,018,Scanner,R,1,2019_Sep_02_1245,SST,3.0.7,60.05748425251145,
go,sst_images/Left_Arrow.bmp,None,1,1102,None,0,145,145,145,,1,1,0.42016105802031234,go,0.25,1.102,2.1020000000000003,018,Scanner,R,1,2019_Sep_02_1245,SST,3.0.7,60.05748425251145,
go,sst_images/Right_Arrow.bmp,None,2,721,None,0,146,146,146,,2,1,0.7702211770229042,go,0.25,0.721,1.721,018,Scanner,R,1,2019_Sep_02_1245,SST,3.0.7,60.05748425251145,
go,sst_images/Left_Arrow.bmp,None,1,738,None,0,147,147,147,,None,0,,go,0.25,0.738,1.738,018,Scanner,R,1,2019_Sep_02_1245,SST,3.0.7,60.05748425251145,
go,sst_images/Right_Arrow.bmp,None,2,1051,None,0,148,148,148,,2,1,0.5377767739701085,go,0.25,1.051,2.051,018,Scanner,R,1,2019_Sep_02_1245,SST,3.0.7,60.05748425251145,
go,sst_images/Left_Arrow.bmp,None,1,1399,None,0,149,149,149,,1,1,0.47200917004374787,go,0.25,1.399,2.399,018,Scanner,R,1,2019_Sep_02_1245,SST,3.0.7,60.05748425251145,
go,sst_images/Right_Arrow.bmp,None,2,820,None,0,150,150,150,,2,1,0.4530429699807428,go,0.25,0.82,1.8199999999999998,018,Scanner,R,1,2019_Sep_02_1245,SST,3.0.7,60.05748425251145,
go,sst_images/Right_Arrow.bmp,None,2,1121,None,0,151,151,151,,2,1,0.40299595199758187,go,0.25,1.121,2.121,018,Scanner,R,1,2019_Sep_02_1245,SST,3.0.7,60.05748425251145,
go,sst_images/Left_Arrow.bmp,None,1,909,None,0,152,152,152,,1,1,0.4041998279863037,go,0.25,0.909,1.909,018,Scanner,R,1,2019_Sep_02_1245,SST,3.0.7,60.05748425251145,
go,sst_images/Right_Arrow.bmp,None,2,1041,None,0,153,153,153,,2,1,0.36910776497097686,go,0.25,1.041,2.041,018,Scanner,R,1,2019_Sep_02_1245,SST,3.0.7,60.05748425251145,
go,sst_images/Left_Arrow.bmp,None,1,900,None,0,154,154,154,,1,1,0.5215702910209075,go,0.25,0.9,1.9,018,Scanner,R,1,2019_Sep_02_1245,SST,3.0.7,60.05748425251145,
go,sst_images/Right_Arrow.bmp,None,2,825,None,0,155,155,155,,2,1,0.38799502298934385,go,0.25,0.825,1.825,018,Scanner,R,1,2019_Sep_02_1245,SST,3.0.7,60.05748425251145,
stop,sst_images/Left_Arrow.bmp,sst_images/Stop_Arrow.bmp,none,1003,None,0,156,156,156,,1,0,0.4883170939865522,stop,0.2,1.003,2.0646829060134477,018,Scanner,R,1,2019_Sep_02_1245,SST,3.0.7,60.05748425251145,
go,sst_images/Left_Arrow.bmp,None,1,1309,None,0,157,157,157,,2,0,0.40358969202497974,go,0.2,1.309,2.309,018,Scanner,R,1,2019_Sep_02_1245,SST,3.0.7,60.05748425251145,
go,sst_images/Right_Arrow.bmp,None,2,782,None,0,158,158,158,,2,1,0.486021263001021,go,0.2,0.782,1.782,018,Scanner,R,1,2019_Sep_02_1245,SST,3.0.7,60.05748425251145,
stop,sst_images/Left_Arrow.bmp,sst_images/Stop_Arrow.bmp,none,1121,None,0,159,159,159,,1,0,0.48613584600389004,stop,0.15000000000000002,1.121,2.13486415399611,018,Scanner,R,1,2019_Sep_02_1245,SST,3.0.7,60.05748425251145,
go,sst_images/Left_Arrow.bmp,None,1,877,None,0,160,160,160,,1,1,0.4523475320311263,go,0.15000000000000002,0.877,1.877,018,Scanner,R,1,2019_Sep_02_1245,SST,3.0.7,60.05748425251145,
go,sst_images/Left_Arrow.bmp,None,1,922,None,0,161,161,161,,1,1,0.4683431930025108,go,0.15000000000000002,0.922,1.9220000000000002,018,Scanner,R,1,2019_Sep_02_1245,SST,3.0.7,60.05748425251145,
go,sst_images/Right_Arrow.bmp,None,2,1017,None,0,162,162,162,,None,0,,go,0.15000000000000002,1.017,2.017,018,Scanner,R,1,2019_Sep_02_1245,SST,3.0.7,60.05748425251145,
go,sst_images/Left_Arrow.bmp,None,1,759,None,0,163,163,163,,1,1,0.41759340203134343,go,0.15000000000000002,0.759,1.759,018,Scanner,R,1,2019_Sep_02_1245,SST,3.0.7,60.05748425251145,
go,sst_images/Right_Arrow.bmp,None,2,775,None,0,164,164,164,,2,1,0.6862226040102541,go,0.15000000000000002,0.775,1.775,018,Scanner,R,1,2019_Sep_02_1245,SST,3.0.7,60.05748425251145,
go,sst_images/Right_Arrow.bmp,None,2,1003,None,0,165,165,165,,2,1,0.5379570599761792,go,0.15000000000000002,1.003,2.003,018,Scanner,R,1,2019_Sep_02_1245,SST,3.0.7,60.05748425251145,
go,sst_images/Right_Arrow.bmp,None,2,925,None,0,166,166,166,,2,1,0.9526297170086764,go,0.15000000000000002,0.925,1.925,018,Scanner,R,1,2019_Sep_02_1245,SST,3.0.7,60.05748425251145,
go,sst_images/Left_Arrow.bmp,None,1,728,None,0,167,167,167,,None,0,,go,0.15000000000000002,0.728,1.728,018,Scanner,R,1,2019_Sep_02_1245,SST,3.0.7,60.05748425251145,
go,sst_images/Right_Arrow.bmp,None,2,1170,None,0,168,168,168,,2,1,0.3380208319867961,go,0.15000000000000002,1.17,2.17,018,Scanner,R,1,2019_Sep_02_1245,SST,3.0.7,60.05748425251145,
go,sst_images/Right_Arrow.bmp,None,2,1099,None,0,169,169,169,,None,0,,go,0.15000000000000002,1.099,2.099,018,Scanner,R,1,2019_Sep_02_1245,SST,3.0.7,60.05748425251145,
go,sst_images/Left_Arrow.bmp,None,1,756,None,0,170,170,170,,None,0,,go,0.15000000000000002,0.756,1.756,018,Scanner,R,1,2019_Sep_02_1245,SST,3.0.7,60.05748425251145,
go,sst_images/Right_Arrow.bmp,None,2,721,None,0,171,171,171,,2,1,0.37048101099208,go,0.15000000000000002,0.721,1.721,018,Scanner,R,1,2019_Sep_02_1245,SST,3.0.7,60.05748425251145,
go,sst_images/Right_Arrow.bmp,None,2,957,None,0,172,172,172,,2,1,0.401985895994585,go,0.15000000000000002,0.957,1.9569999999999999,018,Scanner,R,1,2019_Sep_02_1245,SST,3.0.7,60.05748425251145,
go,sst_images/Right_Arrow.bmp,None,2,806,None,0,173,173,173,,2,1,0.385686481022276,go,0.15000000000000002,0.806,1.806,018,Scanner,R,1,2019_Sep_02_1245,SST,3.0.7,60.05748425251145,
go,sst_images/Left_Arrow.bmp,None,1,951,None,0,174,174,174,,None,0,,go,0.15000000000000002,0.951,1.951,018,Scanner,R,1,2019_Sep_02_1245,SST,3.0.7,60.05748425251145,
go,sst_images/Right_Arrow.bmp,None,2,808,None,0,175,175,175,,2,1,0.38793082803022116,go,0.15000000000000002,0.808,1.808,018,Scanner,R,1,2019_Sep_02_1245,SST,3.0.7,60.05748425251145,
go,sst_images/Left_Arrow.bmp,None,1,720,None,0,176,176,176,,None,0,,go,0.15000000000000002,0.72,1.72,018,Scanner,R,1,2019_Sep_02_1245,SST,3.0.7,60.05748425251145,
stop,sst_images/Right_Arrow.bmp,sst_images/Stop_Arrow.bmp,none,815,None,0,177,177,177,,None,1,,stop,0.2,0.815,1.8149999999999997,018,Scanner,R,1,2019_Sep_02_1245,SST,3.0.7,60.05748425251145,
go,sst_images/Right_Arrow.bmp,None,2,736,None,0,178,178,178,,2,1,0.835760107031092,go,0.2,0.736,1.736,018,Scanner,R,1,2019_Sep_02_1245,SST,3.0.7,60.05748425251145,
stop,sst_images/Left_Arrow.bmp,sst_images/Stop_Arrow.bmp,none,707,1421.0,0,179,179,179,,None,1,,stop,0.25,0.707,1.7069999999999999,018,Scanner,R,1,2019_Sep_02_1245,SST,3.0.7,60.05748425251145,
