trial_type,arrow_1,arrow_2,corrAns,jitter,run_end_fixation,trials.thisRepN,trials.thisTrialN,trials.thisN,trials.thisIndex,randomized TrialOrder,key_response.keys,key_response.corr,key_response.rt,trial_t.routineEndVal,ss_delay,iti_duration,SOA,participant,prac_or_scan,handedness,run,date,expName,psychopyVersion,frameRate,
go,sst_images/Left_Arrow.bmp,None,1,717,None,0,0,0,0,1,1,1,0.5832620220026001,go,0.05,0.717,1.717,021,Scanner,R,2,2019_Aug_31_1144,SST,3.0.7,59.742688583067235,
go,sst_images/Right_Arrow.bmp,None,2,1024,None,0,1,1,1,,2,1,0.42104817897779867,go,0.05,1.024,2.024,021,Scanner,R,2,2019_Aug_31_1144,SST,3.0.7,59.742688583067235,
go,sst_images/Right_Arrow.bmp,None,2,726,None,0,2,2,2,,2,1,0.48615631100255996,go,0.05,0.726,1.726,021,Scanner,R,2,2019_Aug_31_1144,SST,3.0.7,59.742688583067235,
go,sst_images/Left_Arrow.bmp,None,1,819,None,0,3,3,3,,1,1,0.3825233989628032,go,0.05,0.819,1.819,021,Scanner,R,2,2019_Aug_31_1144,SST,3.0.7,59.742688583067235,
stop,sst_images/Right_Arrow.bmp,sst_images/Stop_Arrow.bmp,none,837,None,0,4,4,4,,None,1,,stop,0.1,0.837,1.837,021,Scanner,R,2,2019_Aug_31_1144,SST,3.0.7,59.742688583067235,
go,sst_images/Left_Arrow.bmp,None,1,908,None,0,5,5,5,,1,1,0.4546982939937152,go,0.1,0.908,1.908,021,Scanner,R,2,2019_Aug_31_1144,SST,3.0.7,59.742688583067235,
go,sst_images/Right_Arrow.bmp,None,2,738,None,0,6,6,6,,2,1,0.37009399494854733,go,0.1,0.738,1.738,021,Scanner,R,2,2019_Aug_31_1144,SST,3.0.7,59.742688583067235,
go,sst_images/Left_Arrow.bmp,None,1,787,None,0,7,7,7,,1,1,0.4212272909935564,go,0.1,0.787,1.787,021,Scanner,R,2,2019_Aug_31_1144,SST,3.0.7,59.742688583067235,
go,sst_images/Right_Arrow.bmp,None,2,708,None,0,8,8,8,,2,1,0.38838341902010143,go,0.1,0.708,1.708,021,Scanner,R,2,2019_Aug_31_1144,SST,3.0.7,59.742688583067235,
go,sst_images/Right_Arrow.bmp,None,2,818,None,0,9,9,9,,2,1,0.48845768702449277,go,0.1,0.818,1.818,021,Scanner,R,2,2019_Aug_31_1144,SST,3.0.7,59.742688583067235,
go,sst_images/Left_Arrow.bmp,None,1,703,None,0,10,10,10,,1,1,0.4713207969907671,go,0.1,0.703,1.7029999999999998,021,Scanner,R,2,2019_Aug_31_1144,SST,3.0.7,59.742688583067235,
go,sst_images/Right_Arrow.bmp,None,2,727,None,0,11,11,11,,2,1,0.38574042497202754,go,0.1,0.727,1.7269999999999999,021,Scanner,R,2,2019_Aug_31_1144,SST,3.0.7,59.742688583067235,
go,sst_images/Left_Arrow.bmp,None,1,832,None,0,12,12,12,,1,1,0.4006987609900534,go,0.1,0.832,1.8319999999999999,021,Scanner,R,2,2019_Aug_31_1144,SST,3.0.7,59.742688583067235,
go,sst_images/Left_Arrow.bmp,None,1,981,None,0,13,13,13,,1,1,0.48661039397120476,go,0.1,0.981,1.9809999999999999,021,Scanner,R,2,2019_Aug_31_1144,SST,3.0.7,59.742688583067235,
go,sst_images/Left_Arrow.bmp,None,1,816,None,0,14,14,14,,1,1,0.621851685049478,go,0.1,0.816,1.8159999999999998,021,Scanner,R,2,2019_Aug_31_1144,SST,3.0.7,59.742688583067235,
stop,sst_images/Left_Arrow.bmp,sst_images/Stop_Arrow.bmp,none,970,None,0,15,15,15,,None,1,,stop,0.15000000000000002,0.97,1.97,021,Scanner,R,2,2019_Aug_31_1144,SST,3.0.7,59.742688583067235,
go,sst_images/Right_Arrow.bmp,None,2,792,None,0,16,16,16,,2,1,0.418790737981908,go,0.15000000000000002,0.792,1.792,021,Scanner,R,2,2019_Aug_31_1144,SST,3.0.7,59.742688583067235,
go,sst_images/Left_Arrow.bmp,None,1,1580,None,0,17,17,17,,1,1,0.617961102980189,go,0.15000000000000002,1.58,2.58,021,Scanner,R,2,2019_Aug_31_1144,SST,3.0.7,59.742688583067235,
go,sst_images/Left_Arrow.bmp,None,1,800,None,0,18,18,18,,1,1,0.45488432300044224,go,0.15000000000000002,0.8,1.8,021,Scanner,R,2,2019_Aug_31_1144,SST,3.0.7,59.742688583067235,
go,sst_images/Right_Arrow.bmp,None,2,804,None,0,19,19,19,,2,1,0.5868195100338198,go,0.15000000000000002,0.804,1.804,021,Scanner,R,2,2019_Aug_31_1144,SST,3.0.7,59.742688583067235,
go,sst_images/Left_Arrow.bmp,None,1,709,None,0,20,20,20,,1,1,0.36969467997550964,go,0.15000000000000002,0.709,1.709,021,Scanner,R,2,2019_Aug_31_1144,SST,3.0.7,59.742688583067235,
go,sst_images/Right_Arrow.bmp,None,2,823,None,0,21,21,21,,2,1,0.42172674101311713,go,0.15000000000000002,0.823,1.823,021,Scanner,R,2,2019_Aug_31_1144,SST,3.0.7,59.742688583067235,
go,sst_images/Left_Arrow.bmp,None,1,1215,None,0,22,22,22,,1,1,0.4851997080259025,go,0.15000000000000002,1.215,2.215,021,Scanner,R,2,2019_Aug_31_1144,SST,3.0.7,59.742688583067235,
go,sst_images/Right_Arrow.bmp,None,2,755,None,0,23,23,23,,2,1,0.37061174400150776,go,0.15000000000000002,0.755,1.755,021,Scanner,R,2,2019_Aug_31_1144,SST,3.0.7,59.742688583067235,
go,sst_images/Right_Arrow.bmp,None,2,703,None,0,24,24,24,,2,1,0.4876355239539407,go,0.15000000000000002,0.703,1.7029999999999998,021,Scanner,R,2,2019_Aug_31_1144,SST,3.0.7,59.742688583067235,
go,sst_images/Left_Arrow.bmp,None,1,960,None,0,25,25,25,,1,1,0.45347847195807844,go,0.15000000000000002,0.96,1.96,021,Scanner,R,2,2019_Aug_31_1144,SST,3.0.7,59.742688583067235,
go,sst_images/Right_Arrow.bmp,None,2,754,None,0,26,26,26,,2,1,0.5216395889874548,go,0.15000000000000002,0.754,1.754,021,Scanner,R,2,2019_Aug_31_1144,SST,3.0.7,59.742688583067235,
go,sst_images/Right_Arrow.bmp,None,2,731,None,0,27,27,27,,2,1,0.5182268039789051,go,0.15000000000000002,0.731,1.7309999999999999,021,Scanner,R,2,2019_Aug_31_1144,SST,3.0.7,59.742688583067235,
go,sst_images/Left_Arrow.bmp,None,1,896,None,0,28,28,28,,1,1,0.553663854021579,go,0.15000000000000002,0.896,1.896,021,Scanner,R,2,2019_Aug_31_1144,SST,3.0.7,59.742688583067235,
go,sst_images/Right_Arrow.bmp,None,2,1195,None,0,29,29,29,,2,1,0.4039482129737735,go,0.15000000000000002,1.195,2.1950000000000003,021,Scanner,R,2,2019_Aug_31_1144,SST,3.0.7,59.742688583067235,
go,sst_images/Left_Arrow.bmp,None,1,1677,None,0,30,30,30,,1,1,0.35474019998218864,go,0.15000000000000002,1.677,2.677,021,Scanner,R,2,2019_Aug_31_1144,SST,3.0.7,59.742688583067235,
go,sst_images/Left_Arrow.bmp,None,1,765,None,0,31,31,31,,1,1,0.47030459699453786,go,0.15000000000000002,0.765,1.7650000000000001,021,Scanner,R,2,2019_Aug_31_1144,SST,3.0.7,59.742688583067235,
go,sst_images/Right_Arrow.bmp,None,2,706,None,0,32,32,32,,2,1,0.4526310060173273,go,0.15000000000000002,0.706,1.706,021,Scanner,R,2,2019_Aug_31_1144,SST,3.0.7,59.742688583067235,
go,sst_images/Right_Arrow.bmp,None,2,984,None,0,33,33,33,,2,1,0.5214748739963397,go,0.15000000000000002,0.984,1.984,021,Scanner,R,2,2019_Aug_31_1144,SST,3.0.7,59.742688583067235,
go,sst_images/Left_Arrow.bmp,None,1,747,None,0,34,34,34,,1,1,0.43628145300317556,go,0.15000000000000002,0.747,1.7469999999999999,021,Scanner,R,2,2019_Aug_31_1144,SST,3.0.7,59.742688583067235,
go,sst_images/Left_Arrow.bmp,None,1,1747,None,0,35,35,35,,1,1,0.636845640023239,go,0.15000000000000002,1.747,2.747,021,Scanner,R,2,2019_Aug_31_1144,SST,3.0.7,59.742688583067235,
stop,sst_images/Left_Arrow.bmp,sst_images/Stop_Arrow.bmp,none,802,None,0,36,36,36,,None,1,,stop,0.2,0.802,1.8019999999999998,021,Scanner,R,2,2019_Aug_31_1144,SST,3.0.7,59.742688583067235,
go,sst_images/Right_Arrow.bmp,None,2,709,None,0,37,37,37,,2,1,0.46978866000426933,go,0.2,0.709,1.709,021,Scanner,R,2,2019_Aug_31_1144,SST,3.0.7,59.742688583067235,
go,sst_images/Left_Arrow.bmp,None,1,741,None,0,38,38,38,,1,1,0.36957004701253027,go,0.2,0.741,1.741,021,Scanner,R,2,2019_Aug_31_1144,SST,3.0.7,59.742688583067235,
go,sst_images/Left_Arrow.bmp,None,1,807,None,0,39,39,39,,1,1,0.4378610469866544,go,0.2,0.807,1.807,021,Scanner,R,2,2019_Aug_31_1144,SST,3.0.7,59.742688583067235,
stop,sst_images/Right_Arrow.bmp,sst_images/Stop_Arrow.bmp,none,915,None,0,40,40,40,,None,1,,stop,0.25,0.915,1.915,021,Scanner,R,2,2019_Aug_31_1144,SST,3.0.7,59.742688583067235,
go,sst_images/Right_Arrow.bmp,None,2,997,None,0,41,41,41,,2,1,0.5710549849900417,go,0.25,0.997,1.9969999999999999,021,Scanner,R,2,2019_Aug_31_1144,SST,3.0.7,59.742688583067235,
go,sst_images/Right_Arrow.bmp,None,2,725,None,0,42,42,42,,2,1,0.537936037988402,go,0.25,0.725,1.725,021,Scanner,R,2,2019_Aug_31_1144,SST,3.0.7,59.742688583067235,
stop,sst_images/Right_Arrow.bmp,sst_images/Stop_Arrow.bmp,none,734,None,0,43,43,43,,2,0,0.43487269699107856,stop,0.2,0.734,1.8491273030089215,021,Scanner,R,2,2019_Aug_31_1144,SST,3.0.7,59.742688583067235,
go,sst_images/Right_Arrow.bmp,None,2,755,None,0,44,44,44,,2,1,0.5381176479859278,go,0.2,0.755,1.755,021,Scanner,R,2,2019_Aug_31_1144,SST,3.0.7,59.742688583067235,
go,sst_images/Left_Arrow.bmp,None,1,771,None,0,45,45,45,,1,1,0.4200559279997833,go,0.2,0.771,1.771,021,Scanner,R,2,2019_Aug_31_1144,SST,3.0.7,59.742688583067235,
go,sst_images/Left_Arrow.bmp,None,1,851,None,0,46,46,46,,1,1,0.4040273649734445,go,0.2,0.851,1.851,021,Scanner,R,2,2019_Aug_31_1144,SST,3.0.7,59.742688583067235,
go,sst_images/Left_Arrow.bmp,None,1,711,None,0,47,47,47,,1,1,0.3695701209944673,go,0.2,0.711,1.7109999999999999,021,Scanner,R,2,2019_Aug_31_1144,SST,3.0.7,59.742688583067235,
stop,sst_images/Left_Arrow.bmp,sst_images/Stop_Arrow.bmp,none,727,None,0,48,48,48,,None,1,,stop,0.25,0.727,1.7269999999999999,021,Scanner,R,2,2019_Aug_31_1144,SST,3.0.7,59.742688583067235,
go,sst_images/Right_Arrow.bmp,None,2,1176,None,0,49,49,49,,2,1,0.44603647402254865,go,0.25,1.176,2.176,021,Scanner,R,2,2019_Aug_31_1144,SST,3.0.7,59.742688583067235,
go,sst_images/Right_Arrow.bmp,None,2,730,None,0,50,50,50,,2,1,0.5104689939762466,go,0.25,0.73,1.73,021,Scanner,R,2,2019_Aug_31_1144,SST,3.0.7,59.742688583067235,
go,sst_images/Left_Arrow.bmp,None,1,705,None,0,51,51,51,,1,1,0.5519773029955104,go,0.25,0.705,1.705,021,Scanner,R,2,2019_Aug_31_1144,SST,3.0.7,59.742688583067235,
stop,sst_images/Right_Arrow.bmp,sst_images/Stop_Arrow.bmp,none,921,None,0,52,52,52,,None,1,,stop,0.3,0.921,1.921,021,Scanner,R,2,2019_Aug_31_1144,SST,3.0.7,59.742688583067235,
go,sst_images/Left_Arrow.bmp,None,1,835,None,0,53,53,53,,1,1,0.495797497977037,go,0.3,0.835,1.835,021,Scanner,R,2,2019_Aug_31_1144,SST,3.0.7,59.742688583067235,
go,sst_images/Left_Arrow.bmp,None,1,756,None,0,54,54,54,,1,1,0.9530983190052211,go,0.3,0.756,1.756,021,Scanner,R,2,2019_Aug_31_1144,SST,3.0.7,59.742688583067235,
stop,sst_images/Right_Arrow.bmp,sst_images/Stop_Arrow.bmp,none,1128,None,0,55,55,55,,None,1,,stop,0.35,1.128,2.1279999999999997,021,Scanner,R,2,2019_Aug_31_1144,SST,3.0.7,59.742688583067235,
go,sst_images/Right_Arrow.bmp,None,2,718,None,0,56,56,56,,2,1,0.41034048702567816,go,0.35,0.718,1.718,021,Scanner,R,2,2019_Aug_31_1144,SST,3.0.7,59.742688583067235,
go,sst_images/Left_Arrow.bmp,None,1,876,None,0,57,57,57,,1,1,0.46722623700043187,go,0.35,0.876,1.876,021,Scanner,R,2,2019_Aug_31_1144,SST,3.0.7,59.742688583067235,
go,sst_images/Left_Arrow.bmp,None,1,720,None,0,58,58,58,,1,1,0.7353597960318439,go,0.35,0.72,1.72,021,Scanner,R,2,2019_Aug_31_1144,SST,3.0.7,59.742688583067235,
go,sst_images/Right_Arrow.bmp,None,2,1298,None,0,59,59,59,,2,1,0.6278919589822181,go,0.35,1.298,2.298,021,Scanner,R,2,2019_Aug_31_1144,SST,3.0.7,59.742688583067235,
go,sst_images/Right_Arrow.bmp,None,2,806,None,0,60,60,60,,2,1,0.7029071190045215,go,0.35,0.806,1.806,021,Scanner,R,2,2019_Aug_31_1144,SST,3.0.7,59.742688583067235,
stop,sst_images/Left_Arrow.bmp,sst_images/Stop_Arrow.bmp,none,1135,None,0,61,61,61,,1,0,0.4868302489630878,stop,0.3,1.135,2.298169751036912,021,Scanner,R,2,2019_Aug_31_1144,SST,3.0.7,59.742688583067235,
go,sst_images/Left_Arrow.bmp,None,1,1845,None,0,62,62,62,,1,1,0.49546686897519976,go,0.3,1.845,2.8449999999999998,021,Scanner,R,2,2019_Aug_31_1144,SST,3.0.7,59.742688583067235,
go,sst_images/Right_Arrow.bmp,None,2,738,None,0,63,63,63,,2,1,0.4003574940143153,go,0.3,0.738,1.738,021,Scanner,R,2,2019_Aug_31_1144,SST,3.0.7,59.742688583067235,
stop,sst_images/Right_Arrow.bmp,sst_images/Stop_Arrow.bmp,none,827,None,0,64,64,64,,None,1,,stop,0.35,0.827,1.827,021,Scanner,R,2,2019_Aug_31_1144,SST,3.0.7,59.742688583067235,
go,sst_images/Left_Arrow.bmp,None,1,746,None,0,65,65,65,,1,1,0.43821677000960335,go,0.35,0.746,1.746,021,Scanner,R,2,2019_Aug_31_1144,SST,3.0.7,59.742688583067235,
go,sst_images/Right_Arrow.bmp,None,2,717,None,0,66,66,66,,2,1,0.4947076020180248,go,0.35,0.717,1.717,021,Scanner,R,2,2019_Aug_31_1144,SST,3.0.7,59.742688583067235,
stop,sst_images/Left_Arrow.bmp,sst_images/Stop_Arrow.bmp,none,1433,None,0,67,67,67,,1,0,0.4094574329792522,stop,0.3,1.433,2.6735425670207476,021,Scanner,R,2,2019_Aug_31_1144,SST,3.0.7,59.742688583067235,
go,sst_images/Right_Arrow.bmp,None,2,2000,None,0,68,68,68,,2,1,0.5109783710213378,go,0.3,2.0,3.0,021,Scanner,R,2,2019_Aug_31_1144,SST,3.0.7,59.742688583067235,
go,sst_images/Left_Arrow.bmp,None,1,2000,None,0,69,69,69,,1,1,0.41115193197038025,go,0.3,2.0,3.0,021,Scanner,R,2,2019_Aug_31_1144,SST,3.0.7,59.742688583067235,
go,sst_images/Right_Arrow.bmp,None,2,983,None,0,70,70,70,,2,1,0.5613269410096109,go,0.3,0.983,1.983,021,Scanner,R,2,2019_Aug_31_1144,SST,3.0.7,59.742688583067235,
stop,sst_images/Right_Arrow.bmp,sst_images/Stop_Arrow.bmp,none,818,None,0,71,71,71,,None,1,,stop,0.35,0.818,1.818,021,Scanner,R,2,2019_Aug_31_1144,SST,3.0.7,59.742688583067235,
go,sst_images/Left_Arrow.bmp,None,1,1135,None,0,72,72,72,,1,1,0.3897673020255752,go,0.35,1.135,2.135,021,Scanner,R,2,2019_Aug_31_1144,SST,3.0.7,59.742688583067235,
go,sst_images/Right_Arrow.bmp,None,2,823,None,0,73,73,73,,2,1,0.3926027889829129,go,0.35,0.823,1.823,021,Scanner,R,2,2019_Aug_31_1144,SST,3.0.7,59.742688583067235,
stop,sst_images/Right_Arrow.bmp,sst_images/Stop_Arrow.bmp,none,751,None,0,74,74,74,,2,0,0.5203692200011574,stop,0.3,0.751,1.8806307799988426,021,Scanner,R,2,2019_Aug_31_1144,SST,3.0.7,59.742688583067235,
go,sst_images/Left_Arrow.bmp,None,1,824,None,0,75,75,75,,1,1,0.34388596896314994,go,0.3,0.824,1.8239999999999998,021,Scanner,R,2,2019_Aug_31_1144,SST,3.0.7,59.742688583067235,
go,sst_images/Right_Arrow.bmp,None,2,704,None,0,76,76,76,,2,1,0.4602256590151228,go,0.3,0.704,1.704,021,Scanner,R,2,2019_Aug_31_1144,SST,3.0.7,59.742688583067235,
stop,sst_images/Left_Arrow.bmp,sst_images/Stop_Arrow.bmp,none,926,None,0,77,77,77,,1,0,0.4198818900040351,stop,0.25,0.926,2.106118109995965,021,Scanner,R,2,2019_Aug_31_1144,SST,3.0.7,59.742688583067235,
go,sst_images/Right_Arrow.bmp,None,2,1013,None,0,78,78,78,,2,1,0.4581344399484806,go,0.25,1.013,2.013,021,Scanner,R,2,2019_Aug_31_1144,SST,3.0.7,59.742688583067235,
go,sst_images/Left_Arrow.bmp,None,1,725,None,0,79,79,79,,1,1,0.4410558880190365,go,0.25,0.725,1.725,021,Scanner,R,2,2019_Aug_31_1144,SST,3.0.7,59.742688583067235,
stop,sst_images/Right_Arrow.bmp,sst_images/Stop_Arrow.bmp,none,707,None,0,80,80,80,,2,0,0.45836180599872023,stop,0.2,0.707,1.7986381940012797,021,Scanner,R,2,2019_Aug_31_1144,SST,3.0.7,59.742688583067235,
go,sst_images/Left_Arrow.bmp,None,1,733,None,0,81,81,81,,1,1,0.3749061449780129,go,0.2,0.733,1.733,021,Scanner,R,2,2019_Aug_31_1144,SST,3.0.7,59.742688583067235,
go,sst_images/Right_Arrow.bmp,None,2,817,None,0,82,82,82,,2,1,0.425130650983192,go,0.2,0.817,1.817,021,Scanner,R,2,2019_Aug_31_1144,SST,3.0.7,59.742688583067235,
go,sst_images/Right_Arrow.bmp,None,2,714,None,0,83,83,83,,2,1,0.539290162967518,go,0.2,0.714,1.714,021,Scanner,R,2,2019_Aug_31_1144,SST,3.0.7,59.742688583067235,
go,sst_images/Right_Arrow.bmp,None,2,940,None,0,84,84,84,,2,1,0.4256616929778829,go,0.2,0.94,1.94,021,Scanner,R,2,2019_Aug_31_1144,SST,3.0.7,59.742688583067235,
go,sst_images/Left_Arrow.bmp,None,1,1003,None,0,85,85,85,,1,1,0.724673654010985,go,0.2,1.003,2.003,021,Scanner,R,2,2019_Aug_31_1144,SST,3.0.7,59.742688583067235,
go,sst_images/Left_Arrow.bmp,None,1,1164,None,0,86,86,86,,1,1,0.4923225920065306,go,0.2,1.164,2.1639999999999997,021,Scanner,R,2,2019_Aug_31_1144,SST,3.0.7,59.742688583067235,
stop,sst_images/Right_Arrow.bmp,sst_images/Stop_Arrow.bmp,none,725,None,0,87,87,87,,2,0,0.4198004419449717,stop,0.15000000000000002,0.725,1.8051995580550284,021,Scanner,R,2,2019_Aug_31_1144,SST,3.0.7,59.742688583067235,
go,sst_images/Right_Arrow.bmp,None,2,1653,None,0,88,88,88,,2,1,0.492370399995707,go,0.15000000000000002,1.653,2.653,021,Scanner,R,2,2019_Aug_31_1144,SST,3.0.7,59.742688583067235,
go,sst_images/Left_Arrow.bmp,None,1,1059,None,0,89,89,89,,1,1,0.48646727995947003,go,0.15000000000000002,1.059,2.059,021,Scanner,R,2,2019_Aug_31_1144,SST,3.0.7,59.742688583067235,
go,sst_images/Right_Arrow.bmp,None,2,1580,None,0,90,90,90,,2,1,0.4192997860372998,go,0.15000000000000002,1.58,2.58,021,Scanner,R,2,2019_Aug_31_1144,SST,3.0.7,59.742688583067235,
go,sst_images/Left_Arrow.bmp,None,1,1129,None,0,91,91,91,,1,1,0.36989527504192665,go,0.15000000000000002,1.129,2.129,021,Scanner,R,2,2019_Aug_31_1144,SST,3.0.7,59.742688583067235,
go,sst_images/Right_Arrow.bmp,None,2,915,None,0,92,92,92,,2,1,0.35230685700662434,go,0.15000000000000002,0.915,1.915,021,Scanner,R,2,2019_Aug_31_1144,SST,3.0.7,59.742688583067235,
go,sst_images/Left_Arrow.bmp,None,1,1135,None,0,93,93,93,,1,1,0.40244199603330344,go,0.15000000000000002,1.135,2.135,021,Scanner,R,2,2019_Aug_31_1144,SST,3.0.7,59.742688583067235,
go,sst_images/Left_Arrow.bmp,None,1,769,None,0,94,94,94,,1,1,0.6044731860165484,go,0.15000000000000002,0.769,1.7690000000000001,021,Scanner,R,2,2019_Aug_31_1144,SST,3.0.7,59.742688583067235,
go,sst_images/Left_Arrow.bmp,None,1,725,None,0,95,95,95,,1,1,0.47073104104492813,go,0.15000000000000002,0.725,1.725,021,Scanner,R,2,2019_Aug_31_1144,SST,3.0.7,59.742688583067235,
go,sst_images/Right_Arrow.bmp,None,2,1497,None,0,96,96,96,,2,1,0.5223465220187791,go,0.15000000000000002,1.497,2.497,021,Scanner,R,2,2019_Aug_31_1144,SST,3.0.7,59.742688583067235,
go,sst_images/Left_Arrow.bmp,None,1,769,None,0,97,97,97,,1,1,0.35768081701826304,go,0.15000000000000002,0.769,1.7690000000000001,021,Scanner,R,2,2019_Aug_31_1144,SST,3.0.7,59.742688583067235,
go,sst_images/Right_Arrow.bmp,None,2,829,None,0,98,98,98,,2,1,0.4435197049751878,go,0.15000000000000002,0.829,1.829,021,Scanner,R,2,2019_Aug_31_1144,SST,3.0.7,59.742688583067235,
go,sst_images/Right_Arrow.bmp,None,2,921,None,0,99,99,99,,2,1,0.5221666690194979,go,0.15000000000000002,0.921,1.921,021,Scanner,R,2,2019_Aug_31_1144,SST,3.0.7,59.742688583067235,
go,sst_images/Left_Arrow.bmp,None,1,707,None,0,100,100,100,,1,1,0.3735896900179796,go,0.15000000000000002,0.707,1.7069999999999999,021,Scanner,R,2,2019_Aug_31_1144,SST,3.0.7,59.742688583067235,
go,sst_images/Right_Arrow.bmp,None,2,887,None,0,101,101,101,,2,1,0.4069936230080202,go,0.15000000000000002,0.887,1.887,021,Scanner,R,2,2019_Aug_31_1144,SST,3.0.7,59.742688583067235,
go,sst_images/Right_Arrow.bmp,None,2,1222,None,0,102,102,102,,2,1,0.5210930640459992,go,0.15000000000000002,1.222,2.222,021,Scanner,R,2,2019_Aug_31_1144,SST,3.0.7,59.742688583067235,
go,sst_images/Left_Arrow.bmp,None,1,1335,None,0,103,103,103,,1,1,0.42060957197099924,go,0.15000000000000002,1.335,2.335,021,Scanner,R,2,2019_Aug_31_1144,SST,3.0.7,59.742688583067235,
go,sst_images/Left_Arrow.bmp,None,1,780,None,0,104,104,104,,1,1,0.6383840480120853,go,0.15000000000000002,0.78,1.78,021,Scanner,R,2,2019_Aug_31_1144,SST,3.0.7,59.742688583067235,
go,sst_images/Right_Arrow.bmp,None,2,711,None,0,105,105,105,,2,1,0.5062578039942309,go,0.15000000000000002,0.711,1.7109999999999999,021,Scanner,R,2,2019_Aug_31_1144,SST,3.0.7,59.742688583067235,
go,sst_images/Right_Arrow.bmp,None,2,725,None,0,106,106,106,,2,1,0.5222055049962364,go,0.15000000000000002,0.725,1.725,021,Scanner,R,2,2019_Aug_31_1144,SST,3.0.7,59.742688583067235,
go,sst_images/Left_Arrow.bmp,None,1,759,None,0,107,107,107,,1,1,0.4540683269733563,go,0.15000000000000002,0.759,1.759,021,Scanner,R,2,2019_Aug_31_1144,SST,3.0.7,59.742688583067235,
stop,sst_images/Left_Arrow.bmp,sst_images/Stop_Arrow.bmp,none,1204,None,0,108,108,108,,None,1,,stop,0.2,1.204,2.2039999999999997,021,Scanner,R,2,2019_Aug_31_1144,SST,3.0.7,59.742688583067235,
go,sst_images/Right_Arrow.bmp,None,2,802,None,0,109,109,109,,2,1,0.4223433310398832,go,0.2,0.802,1.802,021,Scanner,R,2,2019_Aug_31_1144,SST,3.0.7,59.742688583067235,
go,sst_images/Left_Arrow.bmp,None,1,1204,None,0,110,110,110,,1,1,0.42126592597924173,go,0.2,1.204,2.2039999999999997,021,Scanner,R,2,2019_Aug_31_1144,SST,3.0.7,59.742688583067235,
stop,sst_images/Left_Arrow.bmp,sst_images/Stop_Arrow.bmp,none,733,None,0,111,111,111,,None,1,,stop,0.25,0.733,1.7329999999999999,021,Scanner,R,2,2019_Aug_31_1144,SST,3.0.7,59.742688583067235,
go,sst_images/Right_Arrow.bmp,None,2,1022,None,0,112,112,112,,2,1,0.5367072049994022,go,0.25,1.022,2.0220000000000002,021,Scanner,R,2,2019_Aug_31_1144,SST,3.0.7,59.742688583067235,
go,sst_images/Left_Arrow.bmp,None,1,707,None,0,113,113,113,,1,1,0.6200539479614235,go,0.25,0.707,1.7069999999999999,021,Scanner,R,2,2019_Aug_31_1144,SST,3.0.7,59.742688583067235,
go,sst_images/Right_Arrow.bmp,None,2,1399,None,0,114,114,114,,2,1,0.8704384519951418,go,0.25,1.399,2.399,021,Scanner,R,2,2019_Aug_31_1144,SST,3.0.7,59.742688583067235,
stop,sst_images/Right_Arrow.bmp,sst_images/Stop_Arrow.bmp,none,706,None,0,115,115,115,,2,0,0.5166122079826891,stop,0.2,0.706,1.7393877920173109,021,Scanner,R,2,2019_Aug_31_1144,SST,3.0.7,59.742688583067235,
go,sst_images/Left_Arrow.bmp,None,1,943,None,0,116,116,116,,1,1,0.41039994201855734,go,0.2,0.943,1.943,021,Scanner,R,2,2019_Aug_31_1144,SST,3.0.7,59.742688583067235,
go,sst_images/Right_Arrow.bmp,None,2,1040,None,0,117,117,117,,2,1,0.470884055015631,go,0.2,1.04,2.04,021,Scanner,R,2,2019_Aug_31_1144,SST,3.0.7,59.742688583067235,
go,sst_images/Left_Arrow.bmp,None,1,716,None,0,118,118,118,,1,1,0.48504275002051145,go,0.2,0.716,1.716,021,Scanner,R,2,2019_Aug_31_1144,SST,3.0.7,59.742688583067235,
go,sst_images/Right_Arrow.bmp,None,2,802,None,0,119,119,119,,2,1,0.40562768501695246,go,0.2,0.802,1.802,021,Scanner,R,2,2019_Aug_31_1144,SST,3.0.7,59.742688583067235,
stop,sst_images/Left_Arrow.bmp,sst_images/Stop_Arrow.bmp,none,837,None,0,120,120,120,,1,0,0.45453546900535,stop,0.15000000000000002,0.837,1.88246453099465,021,Scanner,R,2,2019_Aug_31_1144,SST,3.0.7,59.742688583067235,
go,sst_images/Left_Arrow.bmp,None,1,880,None,0,121,121,121,,1,1,0.6540089469635859,go,0.15000000000000002,0.88,1.88,021,Scanner,R,2,2019_Aug_31_1144,SST,3.0.7,59.742688583067235,
go,sst_images/Right_Arrow.bmp,None,2,1047,None,0,122,122,122,,2,1,0.3699671180220321,go,0.15000000000000002,1.047,2.0469999999999997,021,Scanner,R,2,2019_Aug_31_1144,SST,3.0.7,59.742688583067235,
go,sst_images/Right_Arrow.bmp,None,2,772,None,0,123,123,123,,2,1,0.8863600680488162,go,0.15000000000000002,0.772,1.772,021,Scanner,R,2,2019_Aug_31_1144,SST,3.0.7,59.742688583067235,
go,sst_images/Left_Arrow.bmp,None,1,733,None,0,124,124,124,,1,1,0.47165310505079105,go,0.15000000000000002,0.733,1.733,021,Scanner,R,2,2019_Aug_31_1144,SST,3.0.7,59.742688583067235,
go,sst_images/Left_Arrow.bmp,None,1,970,None,0,125,125,125,,1,1,0.5039351899758913,go,0.15000000000000002,0.97,1.97,021,Scanner,R,2,2019_Aug_31_1144,SST,3.0.7,59.742688583067235,
stop,sst_images/Left_Arrow.bmp,sst_images/Stop_Arrow.bmp,none,812,None,0,126,126,126,,None,1,,stop,0.2,0.812,1.812,021,Scanner,R,2,2019_Aug_31_1144,SST,3.0.7,59.742688583067235,
go,sst_images/Left_Arrow.bmp,None,1,1179,None,0,127,127,127,,1,1,0.5371125669917092,go,0.2,1.179,2.1790000000000003,021,Scanner,R,2,2019_Aug_31_1144,SST,3.0.7,59.742688583067235,
go,sst_images/Right_Arrow.bmp,None,2,751,None,0,128,128,128,,2,1,0.4031474339426495,go,0.2,0.751,1.751,021,Scanner,R,2,2019_Aug_31_1144,SST,3.0.7,59.742688583067235,
go,sst_images/Left_Arrow.bmp,None,1,809,None,0,129,129,129,,1,1,0.46811677201185375,go,0.2,0.809,1.8090000000000002,021,Scanner,R,2,2019_Aug_31_1144,SST,3.0.7,59.742688583067235,
go,sst_images/Left_Arrow.bmp,None,1,817,None,0,130,130,130,,1,1,0.6040356570156291,go,0.2,0.817,1.817,021,Scanner,R,2,2019_Aug_31_1144,SST,3.0.7,59.742688583067235,
stop,sst_images/Right_Arrow.bmp,sst_images/Stop_Arrow.bmp,none,788,None,0,131,131,131,,None,1,,stop,0.25,0.788,1.788,021,Scanner,R,2,2019_Aug_31_1144,SST,3.0.7,59.742688583067235,
go,sst_images/Left_Arrow.bmp,None,1,1164,None,0,132,132,132,,1,1,0.5205599570181221,go,0.25,1.164,2.1639999999999997,021,Scanner,R,2,2019_Aug_31_1144,SST,3.0.7,59.742688583067235,
go,sst_images/Right_Arrow.bmp,None,2,1108,None,0,133,133,133,,2,1,0.8709393760072999,go,0.25,1.108,2.108,021,Scanner,R,2,2019_Aug_31_1144,SST,3.0.7,59.742688583067235,
go,sst_images/Left_Arrow.bmp,None,1,706,None,0,134,134,134,,1,1,0.40354379499331117,go,0.25,0.706,1.706,021,Scanner,R,2,2019_Aug_31_1144,SST,3.0.7,59.742688583067235,
go,sst_images/Left_Arrow.bmp,None,1,1117,None,0,135,135,135,,1,1,0.5682495759683661,go,0.25,1.117,2.117,021,Scanner,R,2,2019_Aug_31_1144,SST,3.0.7,59.742688583067235,
go,sst_images/Right_Arrow.bmp,None,2,754,None,0,136,136,136,,2,1,0.8708840350154787,go,0.25,0.754,1.754,021,Scanner,R,2,2019_Aug_31_1144,SST,3.0.7,59.742688583067235,
stop,sst_images/Left_Arrow.bmp,sst_images/Stop_Arrow.bmp,none,1024,None,0,137,137,137,,1,0,0.5191521140513942,stop,0.2,1.024,2.0548478859486057,021,Scanner,R,2,2019_Aug_31_1144,SST,3.0.7,59.742688583067235,
go,sst_images/Right_Arrow.bmp,None,2,717,None,0,138,138,138,,2,1,0.6377503090188839,go,0.2,0.717,1.717,021,Scanner,R,2,2019_Aug_31_1144,SST,3.0.7,59.742688583067235,
go,sst_images/Left_Arrow.bmp,None,1,714,None,0,139,139,139,,1,1,0.537855553033296,go,0.2,0.714,1.714,021,Scanner,R,2,2019_Aug_31_1144,SST,3.0.7,59.742688583067235,
go,sst_images/Right_Arrow.bmp,None,2,706,None,0,140,140,140,,2,1,0.9003170849755406,go,0.2,0.706,1.706,021,Scanner,R,2,2019_Aug_31_1144,SST,3.0.7,59.742688583067235,
stop,sst_images/Right_Arrow.bmp,sst_images/Stop_Arrow.bmp,none,713,None,0,141,141,141,,2,0,0.4529922350193374,stop,0.15000000000000002,0.713,1.7600077649806627,021,Scanner,R,2,2019_Aug_31_1144,SST,3.0.7,59.742688583067235,
go,sst_images/Left_Arrow.bmp,None,1,761,None,0,142,142,142,,1,1,0.4207344719907269,go,0.15000000000000002,0.761,1.7610000000000001,021,Scanner,R,2,2019_Aug_31_1144,SST,3.0.7,59.742688583067235,
go,sst_images/Left_Arrow.bmp,None,1,1128,None,0,143,143,143,,1,1,0.38668762502493337,go,0.15000000000000002,1.128,2.128,021,Scanner,R,2,2019_Aug_31_1144,SST,3.0.7,59.742688583067235,
go,sst_images/Right_Arrow.bmp,None,2,776,None,0,144,144,144,,1,0,0.43735749903135,go,0.15000000000000002,0.776,1.776,021,Scanner,R,2,2019_Aug_31_1144,SST,3.0.7,59.742688583067235,
go,sst_images/Left_Arrow.bmp,None,1,1184,None,0,145,145,145,,1,1,0.6693659030133858,go,0.15000000000000002,1.184,2.184,021,Scanner,R,2,2019_Aug_31_1144,SST,3.0.7,59.742688583067235,
go,sst_images/Right_Arrow.bmp,None,2,711,None,0,146,146,146,,2,1,0.42137106298469007,go,0.15000000000000002,0.711,1.7109999999999999,021,Scanner,R,2,2019_Aug_31_1144,SST,3.0.7,59.742688583067235,
go,sst_images/Left_Arrow.bmp,None,1,714,None,0,147,147,147,,1,1,0.45325448003131896,go,0.15000000000000002,0.714,1.714,021,Scanner,R,2,2019_Aug_31_1144,SST,3.0.7,59.742688583067235,
stop,sst_images/Right_Arrow.bmp,sst_images/Stop_Arrow.bmp,none,1117,None,0,148,148,148,,2,0,0.35415643104352057,stop,0.10000000000000002,1.117,2.212843568956479,021,Scanner,R,2,2019_Aug_31_1144,SST,3.0.7,59.742688583067235,
go,sst_images/Right_Arrow.bmp,None,2,704,None,0,149,149,149,,2,1,0.5028617010102607,go,0.10000000000000002,0.704,1.704,021,Scanner,R,2,2019_Aug_31_1144,SST,3.0.7,59.742688583067235,
go,sst_images/Right_Arrow.bmp,None,2,1364,None,0,150,150,150,,2,1,0.4891120980028063,go,0.10000000000000002,1.364,2.364,021,Scanner,R,2,2019_Aug_31_1144,SST,3.0.7,59.742688583067235,
go,sst_images/Left_Arrow.bmp,None,1,942,None,0,151,151,151,,1,1,0.40369455801555887,go,0.10000000000000002,0.942,1.942,021,Scanner,R,2,2019_Aug_31_1144,SST,3.0.7,59.742688583067235,
go,sst_images/Right_Arrow.bmp,None,2,843,None,0,152,152,152,,2,1,0.4863773840479553,go,0.10000000000000002,0.843,1.843,021,Scanner,R,2,2019_Aug_31_1144,SST,3.0.7,59.742688583067235,
stop,sst_images/Left_Arrow.bmp,sst_images/Stop_Arrow.bmp,none,950,None,0,153,153,153,,1,0,0.336348699987866,stop,0.05000000000000002,0.95,2.013651300012134,021,Scanner,R,2,2019_Aug_31_1144,SST,3.0.7,59.742688583067235,
go,sst_images/Left_Arrow.bmp,None,1,732,None,0,154,154,154,,1,1,0.5880642040283419,go,0.05000000000000002,0.732,1.732,021,Scanner,R,2,2019_Aug_31_1144,SST,3.0.7,59.742688583067235,
go,sst_images/Right_Arrow.bmp,None,2,1003,None,0,155,155,155,,2,1,0.4542071159812622,go,0.05000000000000002,1.003,2.003,021,Scanner,R,2,2019_Aug_31_1144,SST,3.0.7,59.742688583067235,
go,sst_images/Left_Arrow.bmp,None,1,734,None,0,156,156,156,,1,1,0.33787025400670245,go,0.05000000000000002,0.734,1.734,021,Scanner,R,2,2019_Aug_31_1144,SST,3.0.7,59.742688583067235,
stop,sst_images/Left_Arrow.bmp,sst_images/Stop_Arrow.bmp,none,816,None,0,157,157,157,,None,1,,stop,0.10000000000000002,0.816,1.8159999999999998,021,Scanner,R,2,2019_Aug_31_1144,SST,3.0.7,59.742688583067235,
go,sst_images/Right_Arrow.bmp,None,2,792,None,0,158,158,158,,2,1,0.4030118100345135,go,0.10000000000000002,0.792,1.792,021,Scanner,R,2,2019_Aug_31_1144,SST,3.0.7,59.742688583067235,
go,sst_images/Left_Arrow.bmp,None,1,856,None,0,159,159,159,,1,1,0.4541715959785506,go,0.10000000000000002,0.856,1.8559999999999999,021,Scanner,R,2,2019_Aug_31_1144,SST,3.0.7,59.742688583067235,
go,sst_images/Left_Arrow.bmp,None,1,1058,None,0,160,160,160,,1,1,0.4864845219999552,go,0.10000000000000002,1.058,2.058,021,Scanner,R,2,2019_Aug_31_1144,SST,3.0.7,59.742688583067235,
go,sst_images/Right_Arrow.bmp,None,2,1225,None,0,161,161,161,,2,1,0.43650094902841374,go,0.10000000000000002,1.225,2.225,021,Scanner,R,2,2019_Aug_31_1144,SST,3.0.7,59.742688583067235,
go,sst_images/Left_Arrow.bmp,None,1,1029,None,0,162,162,162,,1,1,0.38849794201087207,go,0.10000000000000002,1.029,2.029,021,Scanner,R,2,2019_Aug_31_1144,SST,3.0.7,59.742688583067235,
go,sst_images/Right_Arrow.bmp,None,2,801,None,0,163,163,163,,2,1,0.4206826949957758,go,0.10000000000000002,0.801,1.8010000000000002,021,Scanner,R,2,2019_Aug_31_1144,SST,3.0.7,59.742688583067235,
go,sst_images/Right_Arrow.bmp,None,2,705,None,0,164,164,164,,2,1,0.6026592399575748,go,0.10000000000000002,0.705,1.705,021,Scanner,R,2,2019_Aug_31_1144,SST,3.0.7,59.742688583067235,
go,sst_images/Right_Arrow.bmp,None,2,802,None,0,165,165,165,,2,1,0.8179491269984283,go,0.10000000000000002,0.802,1.802,021,Scanner,R,2,2019_Aug_31_1144,SST,3.0.7,59.742688583067235,
stop,sst_images/Left_Arrow.bmp,sst_images/Stop_Arrow.bmp,none,851,None,0,166,166,166,,None,1,,stop,0.15000000000000002,0.851,1.8510000000000002,021,Scanner,R,2,2019_Aug_31_1144,SST,3.0.7,59.742688583067235,
go,sst_images/Left_Arrow.bmp,None,1,880,None,0,167,167,167,,1,1,0.6526054210262373,go,0.15000000000000002,0.88,1.88,021,Scanner,R,2,2019_Aug_31_1144,SST,3.0.7,59.742688583067235,
go,sst_images/Right_Arrow.bmp,None,2,948,None,0,168,168,168,,2,1,0.4866077529732138,go,0.15000000000000002,0.948,1.948,021,Scanner,R,2,2019_Aug_31_1144,SST,3.0.7,59.742688583067235,
go,sst_images/Right_Arrow.bmp,None,2,840,None,0,169,169,169,,2,1,0.47136718197725713,go,0.15000000000000002,0.84,1.8399999999999999,021,Scanner,R,2,2019_Aug_31_1144,SST,3.0.7,59.742688583067235,
go,sst_images/Left_Arrow.bmp,None,1,1335,None,0,170,170,170,,1,1,0.6841678560012951,go,0.15000000000000002,1.335,2.335,021,Scanner,R,2,2019_Aug_31_1144,SST,3.0.7,59.742688583067235,
go,sst_images/Right_Arrow.bmp,None,2,896,None,0,171,171,171,,2,1,0.4886046990286559,go,0.15000000000000002,0.896,1.896,021,Scanner,R,2,2019_Aug_31_1144,SST,3.0.7,59.742688583067235,
go,sst_images/Right_Arrow.bmp,None,2,1210,None,0,172,172,172,,2,1,0.5291120729525574,go,0.15000000000000002,1.21,2.21,021,Scanner,R,2,2019_Aug_31_1144,SST,3.0.7,59.742688583067235,
stop,sst_images/Right_Arrow.bmp,sst_images/Stop_Arrow.bmp,none,1597,None,0,173,173,173,,None,1,,stop,0.2,1.597,2.5969999999999995,021,Scanner,R,2,2019_Aug_31_1144,SST,3.0.7,59.742688583067235,
go,sst_images/Right_Arrow.bmp,None,2,785,None,0,174,174,174,,2,1,0.5543822050094604,go,0.2,0.785,1.7850000000000001,021,Scanner,R,2,2019_Aug_31_1144,SST,3.0.7,59.742688583067235,
go,sst_images/Left_Arrow.bmp,None,1,828,None,0,175,175,175,,1,1,0.5703781229676679,go,0.2,0.828,1.8279999999999998,021,Scanner,R,2,2019_Aug_31_1144,SST,3.0.7,59.742688583067235,
go,sst_images/Right_Arrow.bmp,None,2,830,None,0,176,176,176,,2,1,0.47795631003100425,go,0.2,0.83,1.83,021,Scanner,R,2,2019_Aug_31_1144,SST,3.0.7,59.742688583067235,
go,sst_images/Left_Arrow.bmp,None,1,870,None,0,177,177,177,,1,1,0.47048711602110416,go,0.2,0.87,1.87,021,Scanner,R,2,2019_Aug_31_1144,SST,3.0.7,59.742688583067235,
stop,sst_images/Left_Arrow.bmp,sst_images/Stop_Arrow.bmp,none,822,None,0,178,178,178,,None,1,,stop,0.25,0.822,1.8219999999999998,021,Scanner,R,2,2019_Aug_31_1144,SST,3.0.7,59.742688583067235,
go,sst_images/Right_Arrow.bmp,None,2,706,1038.0,0,179,179,179,,2,1,0.6622844360535964,go,0.25,0.706,1.706,021,Scanner,R,2,2019_Aug_31_1144,SST,3.0.7,59.742688583067235,
