trial_type,arrow_1,arrow_2,corrAns,jitter,run_end_fixation,trials.thisRepN,trials.thisTrialN,trials.thisN,trials.thisIndex,randomized TrialOrder,key_response.keys,key_response.corr,key_response.rt,trial_t.routineEndVal,ss_delay,iti_duration,SOA,participant,prac_or_scan,handedness,run,date,expName,psychopyVersion,frameRate,
go,sst_images/Left_Arrow.bmp,None,1,732,None,0,0,0,0,1,1,1,0.8556663450144697,go,0.05,0.732,1.732,023,Scanner,R,1,2019_Aug_29_0918,SST,3.0.7,24.009987596959494,
go,sst_images/Right_Arrow.bmp,None,2,709,None,0,1,1,1,,2,1,0.4629878319974523,go,0.05,0.709,1.709,023,Scanner,R,1,2019_Aug_29_0918,SST,3.0.7,24.009987596959494,
stop,sst_images/Right_Arrow.bmp,sst_images/Stop_Arrow.bmp,none,832,None,0,2,2,2,,None,1,,stop,0.1,0.832,1.8319999999999999,023,Scanner,R,1,2019_Aug_29_0918,SST,3.0.7,24.009987596959494,
go,sst_images/Right_Arrow.bmp,None,2,812,None,0,3,3,3,,2,1,0.6263749039790127,go,0.1,0.812,1.812,023,Scanner,R,1,2019_Aug_29_0918,SST,3.0.7,24.009987596959494,
go,sst_images/Left_Arrow.bmp,None,1,916,None,0,4,4,4,,1,1,0.46276228097849526,go,0.1,0.916,1.916,023,Scanner,R,1,2019_Aug_29_0918,SST,3.0.7,24.009987596959494,
stop,sst_images/Left_Arrow.bmp,sst_images/Stop_Arrow.bmp,none,817,None,0,5,5,5,,None,1,,stop,0.15000000000000002,0.817,1.817,023,Scanner,R,1,2019_Aug_29_0918,SST,3.0.7,24.009987596959494,
go,sst_images/Left_Arrow.bmp,None,1,1153,None,0,6,6,6,,1,1,0.5458894059993327,go,0.15000000000000002,1.153,2.153,023,Scanner,R,1,2019_Aug_29_0918,SST,3.0.7,24.009987596959494,
go,sst_images/Right_Arrow.bmp,None,2,1097,None,0,7,7,7,,2,1,0.5855817599804141,go,0.15000000000000002,1.097,2.097,023,Scanner,R,1,2019_Aug_29_0918,SST,3.0.7,24.009987596959494,
go,sst_images/Left_Arrow.bmp,None,1,771,None,0,8,8,8,,1,1,0.4584299689740874,go,0.15000000000000002,0.771,1.771,023,Scanner,R,1,2019_Aug_29_0918,SST,3.0.7,24.009987596959494,
go,sst_images/Right_Arrow.bmp,None,2,768,None,0,9,9,9,,2,1,0.5477855210192502,go,0.15000000000000002,0.768,1.768,023,Scanner,R,1,2019_Aug_29_0918,SST,3.0.7,24.009987596959494,
stop,sst_images/Left_Arrow.bmp,sst_images/Stop_Arrow.bmp,none,709,None,0,10,10,10,,1,0,0.5184956630109809,stop,0.10000000000000002,0.709,1.640504336989019,023,Scanner,R,1,2019_Aug_29_0918,SST,3.0.7,24.009987596959494,
go,sst_images/Right_Arrow.bmp,None,2,861,None,0,11,11,11,,2,1,0.7130210169998463,go,0.10000000000000002,0.861,1.861,023,Scanner,R,1,2019_Aug_29_0918,SST,3.0.7,24.009987596959494,
go,sst_images/Left_Arrow.bmp,None,1,834,None,0,12,12,12,,1,1,0.462474847008707,go,0.10000000000000002,0.834,1.834,023,Scanner,R,1,2019_Aug_29_0918,SST,3.0.7,24.009987596959494,
go,sst_images/Right_Arrow.bmp,None,2,830,None,0,13,13,13,,2,1,0.5432817850087304,go,0.10000000000000002,0.83,1.83,023,Scanner,R,1,2019_Aug_29_0918,SST,3.0.7,24.009987596959494,
go,sst_images/Left_Arrow.bmp,None,1,1202,None,0,14,14,14,,1,1,0.6712549439980648,go,0.10000000000000002,1.202,2.202,023,Scanner,R,1,2019_Aug_29_0918,SST,3.0.7,24.009987596959494,
stop,sst_images/Right_Arrow.bmp,sst_images/Stop_Arrow.bmp,none,929,None,0,15,15,15,,2,0,0.40084204298909754,stop,0.05000000000000002,0.929,1.9281579570109026,023,Scanner,R,1,2019_Aug_29_0918,SST,3.0.7,24.009987596959494,
go,sst_images/Left_Arrow.bmp,None,1,705,None,0,16,16,16,,1,1,0.46494322599028237,go,0.05000000000000002,0.705,1.705,023,Scanner,R,1,2019_Aug_29_0918,SST,3.0.7,24.009987596959494,
go,sst_images/Left_Arrow.bmp,None,1,953,None,0,17,17,17,,1,1,0.5853275749832392,go,0.05000000000000002,0.953,1.9529999999999998,023,Scanner,R,1,2019_Aug_29_0918,SST,3.0.7,24.009987596959494,
go,sst_images/Right_Arrow.bmp,None,2,795,None,0,18,18,18,,2,1,0.5032470370060764,go,0.05000000000000002,0.795,1.795,023,Scanner,R,1,2019_Aug_29_0918,SST,3.0.7,24.009987596959494,
go,sst_images/Left_Arrow.bmp,None,1,910,None,0,19,19,19,,1,1,0.4630772359960247,go,0.05000000000000002,0.91,1.9100000000000001,023,Scanner,R,1,2019_Aug_29_0918,SST,3.0.7,24.009987596959494,
go,sst_images/Left_Arrow.bmp,None,1,975,None,0,20,20,20,,1,1,0.6267196409753524,go,0.05000000000000002,0.975,1.975,023,Scanner,R,1,2019_Aug_29_0918,SST,3.0.7,24.009987596959494,
stop,sst_images/Right_Arrow.bmp,sst_images/Stop_Arrow.bmp,none,708,None,0,21,21,21,,None,1,,stop,0.10000000000000002,0.708,1.708,023,Scanner,R,1,2019_Aug_29_0918,SST,3.0.7,24.009987596959494,
go,sst_images/Right_Arrow.bmp,None,2,838,None,0,22,22,22,,2,1,0.5834930640121456,go,0.10000000000000002,0.838,1.838,023,Scanner,R,1,2019_Aug_29_0918,SST,3.0.7,24.009987596959494,
go,sst_images/Left_Arrow.bmp,None,1,794,None,0,23,23,23,,1,1,0.5029902959940955,go,0.10000000000000002,0.794,1.794,023,Scanner,R,1,2019_Aug_29_0918,SST,3.0.7,24.009987596959494,
go,sst_images/Right_Arrow.bmp,None,2,835,None,0,24,24,24,,2,1,0.5446416049962863,go,0.10000000000000002,0.835,1.835,023,Scanner,R,1,2019_Aug_29_0918,SST,3.0.7,24.009987596959494,
go,sst_images/Left_Arrow.bmp,None,1,726,None,0,25,25,25,,1,1,0.41958761698333547,go,0.10000000000000002,0.726,1.726,023,Scanner,R,1,2019_Aug_29_0918,SST,3.0.7,24.009987596959494,
go,sst_images/Right_Arrow.bmp,None,2,1514,None,0,26,26,26,,2,1,0.5079735319886822,go,0.10000000000000002,1.514,2.5140000000000002,023,Scanner,R,1,2019_Aug_29_0918,SST,3.0.7,24.009987596959494,
go,sst_images/Right_Arrow.bmp,None,2,1028,None,0,27,27,27,,2,1,0.6693521930137649,go,0.10000000000000002,1.028,2.028,023,Scanner,R,1,2019_Aug_29_0918,SST,3.0.7,24.009987596959494,
go,sst_images/Left_Arrow.bmp,None,1,849,None,0,28,28,28,,1,1,0.4566776310093701,go,0.10000000000000002,0.849,1.849,023,Scanner,R,1,2019_Aug_29_0918,SST,3.0.7,24.009987596959494,
go,sst_images/Right_Arrow.bmp,None,2,807,None,0,29,29,29,,2,1,0.545565815991722,go,0.10000000000000002,0.807,1.807,023,Scanner,R,1,2019_Aug_29_0918,SST,3.0.7,24.009987596959494,
stop,sst_images/Left_Arrow.bmp,sst_images/Stop_Arrow.bmp,none,870,None,0,30,30,30,,1,0,0.4417006880103145,stop,0.05000000000000002,0.87,1.8282993119896858,023,Scanner,R,1,2019_Aug_29_0918,SST,3.0.7,24.009987596959494,
go,sst_images/Right_Arrow.bmp,None,2,826,None,0,31,31,31,,2,1,0.5043407669872977,go,0.05000000000000002,0.826,1.826,023,Scanner,R,1,2019_Aug_29_0918,SST,3.0.7,24.009987596959494,
go,sst_images/Left_Arrow.bmp,None,1,737,None,0,32,32,32,,1,1,0.5063038049847819,go,0.05000000000000002,0.737,1.737,023,Scanner,R,1,2019_Aug_29_0918,SST,3.0.7,24.009987596959494,
go,sst_images/Right_Arrow.bmp,None,2,853,None,0,33,33,33,,2,1,0.5443393859895878,go,0.05000000000000002,0.853,1.853,023,Scanner,R,1,2019_Aug_29_0918,SST,3.0.7,24.009987596959494,
go,sst_images/Left_Arrow.bmp,None,1,740,None,0,34,34,34,,1,1,0.5058441459841561,go,0.05000000000000002,0.74,1.74,023,Scanner,R,1,2019_Aug_29_0918,SST,3.0.7,24.009987596959494,
go,sst_images/Left_Arrow.bmp,None,1,835,None,0,35,35,35,,1,1,0.6295175080012996,go,0.05000000000000002,0.835,1.835,023,Scanner,R,1,2019_Aug_29_0918,SST,3.0.7,24.009987596959494,
go,sst_images/Right_Arrow.bmp,None,2,848,None,0,36,36,36,,2,1,0.6710672300250735,go,0.05000000000000002,0.848,1.8479999999999999,023,Scanner,R,1,2019_Aug_29_0918,SST,3.0.7,24.009987596959494,
go,sst_images/Right_Arrow.bmp,None,2,983,None,0,37,37,37,,2,1,0.5589000350155402,go,0.05000000000000002,0.983,1.983,023,Scanner,R,1,2019_Aug_29_0918,SST,3.0.7,24.009987596959494,
go,sst_images/Left_Arrow.bmp,None,1,725,None,0,38,38,38,,1,1,0.5437965379969683,go,0.05000000000000002,0.725,1.725,023,Scanner,R,1,2019_Aug_29_0918,SST,3.0.7,24.009987596959494,
go,sst_images/Left_Arrow.bmp,None,1,717,None,0,39,39,39,,1,1,0.628203495987691,go,0.05000000000000002,0.717,1.717,023,Scanner,R,1,2019_Aug_29_0918,SST,3.0.7,24.009987596959494,
go,sst_images/Right_Arrow.bmp,None,2,701,None,0,40,40,40,,2,1,0.6261894810013473,go,0.05000000000000002,0.701,1.701,023,Scanner,R,1,2019_Aug_29_0918,SST,3.0.7,24.009987596959494,
stop,sst_images/Right_Arrow.bmp,sst_images/Stop_Arrow.bmp,none,1646,None,0,41,41,41,,None,1,,stop,0.10000000000000002,1.646,2.6459999999999995,023,Scanner,R,1,2019_Aug_29_0918,SST,3.0.7,24.009987596959494,
go,sst_images/Left_Arrow.bmp,None,1,736,None,0,42,42,42,,1,1,0.5472070530231576,go,0.10000000000000002,0.736,1.736,023,Scanner,R,1,2019_Aug_29_0918,SST,3.0.7,24.009987596959494,
go,sst_images/Left_Arrow.bmp,None,1,855,None,0,43,43,43,,1,1,0.6301367630076129,go,0.10000000000000002,0.855,1.855,023,Scanner,R,1,2019_Aug_29_0918,SST,3.0.7,24.009987596959494,
go,sst_images/Right_Arrow.bmp,None,2,903,None,0,44,44,44,,2,1,0.5017511420010123,go,0.10000000000000002,0.903,1.903,023,Scanner,R,1,2019_Aug_29_0918,SST,3.0.7,24.009987596959494,
go,sst_images/Right_Arrow.bmp,None,2,802,None,0,45,45,45,,2,1,0.5845236319873948,go,0.10000000000000002,0.802,1.802,023,Scanner,R,1,2019_Aug_29_0918,SST,3.0.7,24.009987596959494,
stop,sst_images/Right_Arrow.bmp,sst_images/Stop_Arrow.bmp,none,768,None,0,46,46,46,,None,1,,stop,0.15000000000000002,0.768,1.768,023,Scanner,R,1,2019_Aug_29_0918,SST,3.0.7,24.009987596959494,
go,sst_images/Right_Arrow.bmp,None,2,779,None,0,47,47,47,,2,1,0.6711448240093887,go,0.15000000000000002,0.779,1.779,023,Scanner,R,1,2019_Aug_29_0918,SST,3.0.7,24.009987596959494,
go,sst_images/Left_Arrow.bmp,None,1,703,None,0,48,48,48,,1,1,0.503428245021496,go,0.15000000000000002,0.703,1.7029999999999998,023,Scanner,R,1,2019_Aug_29_0918,SST,3.0.7,24.009987596959494,
go,sst_images/Left_Arrow.bmp,None,1,941,None,0,49,49,49,,1,1,0.6277804629935417,go,0.15000000000000002,0.941,1.9409999999999998,023,Scanner,R,1,2019_Aug_29_0918,SST,3.0.7,24.009987596959494,
go,sst_images/Left_Arrow.bmp,None,1,779,None,0,50,50,50,,1,1,0.629541154979961,go,0.15000000000000002,0.779,1.779,023,Scanner,R,1,2019_Aug_29_0918,SST,3.0.7,24.009987596959494,
stop,sst_images/Left_Arrow.bmp,sst_images/Stop_Arrow.bmp,none,902,None,0,51,51,51,,None,1,,stop,0.2,0.902,1.902,023,Scanner,R,1,2019_Aug_29_0918,SST,3.0.7,24.009987596959494,
go,sst_images/Right_Arrow.bmp,None,2,948,None,0,52,52,52,,2,1,0.5008010710007511,go,0.2,0.948,1.948,023,Scanner,R,1,2019_Aug_29_0918,SST,3.0.7,24.009987596959494,
go,sst_images/Right_Arrow.bmp,None,2,706,None,0,53,53,53,,2,1,0.547133008018136,go,0.2,0.706,1.706,023,Scanner,R,1,2019_Aug_29_0918,SST,3.0.7,24.009987596959494,
stop,sst_images/Right_Arrow.bmp,sst_images/Stop_Arrow.bmp,none,730,None,0,54,54,54,,2,0,0.5456982150208205,stop,0.15000000000000002,0.73,1.6843017849791795,023,Scanner,R,1,2019_Aug_29_0918,SST,3.0.7,24.009987596959494,
go,sst_images/Left_Arrow.bmp,None,1,883,None,0,55,55,55,,1,1,0.6655251520278398,go,0.15000000000000002,0.883,1.883,023,Scanner,R,1,2019_Aug_29_0918,SST,3.0.7,24.009987596959494,
go,sst_images/Left_Arrow.bmp,None,1,951,None,0,56,56,56,,1,1,0.5036083429877181,go,0.15000000000000002,0.951,1.951,023,Scanner,R,1,2019_Aug_29_0918,SST,3.0.7,24.009987596959494,
go,sst_images/Left_Arrow.bmp,None,1,749,None,0,57,57,57,,1,1,0.8358543869981077,go,0.15000000000000002,0.749,1.749,023,Scanner,R,1,2019_Aug_29_0918,SST,3.0.7,24.009987596959494,
go,sst_images/Right_Arrow.bmp,None,2,722,None,0,58,58,58,,2,1,0.7535684439935721,go,0.15000000000000002,0.722,1.722,023,Scanner,R,1,2019_Aug_29_0918,SST,3.0.7,24.009987596959494,
stop,sst_images/Left_Arrow.bmp,sst_images/Stop_Arrow.bmp,none,706,None,0,59,59,59,,None,1,,stop,0.2,0.706,1.7059999999999997,023,Scanner,R,1,2019_Aug_29_0918,SST,3.0.7,24.009987596959494,
go,sst_images/Left_Arrow.bmp,None,1,711,None,0,60,60,60,,1,1,0.6700840000121389,go,0.2,0.711,1.7109999999999999,023,Scanner,R,1,2019_Aug_29_0918,SST,3.0.7,24.009987596959494,
go,sst_images/Left_Arrow.bmp,None,1,1227,None,0,61,61,61,,1,1,0.5055939239973668,go,0.2,1.227,2.2270000000000003,023,Scanner,R,1,2019_Aug_29_0918,SST,3.0.7,24.009987596959494,
go,sst_images/Right_Arrow.bmp,None,2,907,None,0,62,62,62,,2,1,0.5203697629913222,go,0.2,0.907,1.907,023,Scanner,R,1,2019_Aug_29_0918,SST,3.0.7,24.009987596959494,
go,sst_images/Right_Arrow.bmp,None,2,747,None,0,63,63,63,,2,1,0.6300705210014712,go,0.2,0.747,1.7469999999999999,023,Scanner,R,1,2019_Aug_29_0918,SST,3.0.7,24.009987596959494,
stop,sst_images/Right_Arrow.bmp,sst_images/Stop_Arrow.bmp,none,1533,None,0,64,64,64,,2,0,0.5376752160082106,stop,0.15000000000000002,1.533,2.4953247839917894,023,Scanner,R,1,2019_Aug_29_0918,SST,3.0.7,24.009987596959494,
go,sst_images/Left_Arrow.bmp,None,1,1026,None,0,65,65,65,,1,1,0.5846976469911169,go,0.15000000000000002,1.026,2.026,023,Scanner,R,1,2019_Aug_29_0918,SST,3.0.7,24.009987596959494,
go,sst_images/Right_Arrow.bmp,None,2,1533,None,0,66,66,66,,2,1,0.5844876580231357,go,0.15000000000000002,1.533,2.533,023,Scanner,R,1,2019_Aug_29_0918,SST,3.0.7,24.009987596959494,
go,sst_images/Left_Arrow.bmp,None,1,844,None,0,67,67,67,,1,1,0.5061079750012141,go,0.15000000000000002,0.844,1.8439999999999999,023,Scanner,R,1,2019_Aug_29_0918,SST,3.0.7,24.009987596959494,
go,sst_images/Right_Arrow.bmp,None,2,904,None,0,68,68,68,,2,1,0.5045854999916628,go,0.15000000000000002,0.904,1.904,023,Scanner,R,1,2019_Aug_29_0918,SST,3.0.7,24.009987596959494,
go,sst_images/Right_Arrow.bmp,None,2,823,None,0,69,69,69,,2,1,0.6707964680099394,go,0.15000000000000002,0.823,1.823,023,Scanner,R,1,2019_Aug_29_0918,SST,3.0.7,24.009987596959494,
go,sst_images/Left_Arrow.bmp,None,1,754,None,0,70,70,70,,1,1,0.6710969079867937,go,0.15000000000000002,0.754,1.754,023,Scanner,R,1,2019_Aug_29_0918,SST,3.0.7,24.009987596959494,
stop,sst_images/Right_Arrow.bmp,sst_images/Stop_Arrow.bmp,none,1116,None,0,71,71,71,,None,1,,stop,0.2,1.116,2.1159999999999997,023,Scanner,R,1,2019_Aug_29_0918,SST,3.0.7,24.009987596959494,
go,sst_images/Right_Arrow.bmp,None,2,864,None,0,72,72,72,,2,1,0.6715277240145952,go,0.2,0.864,1.8639999999999999,023,Scanner,R,1,2019_Aug_29_0918,SST,3.0.7,24.009987596959494,
go,sst_images/Left_Arrow.bmp,None,1,1093,None,0,73,73,73,,1,1,0.5063274069980253,go,0.2,1.093,2.093,023,Scanner,R,1,2019_Aug_29_0918,SST,3.0.7,24.009987596959494,
go,sst_images/Right_Arrow.bmp,None,2,1344,None,0,74,74,74,,2,1,0.503055573994061,go,0.2,1.344,2.3440000000000003,023,Scanner,R,1,2019_Aug_29_0918,SST,3.0.7,24.009987596959494,
go,sst_images/Left_Arrow.bmp,None,1,957,None,0,75,75,75,,1,1,0.45830825000302866,go,0.2,0.957,1.9569999999999999,023,Scanner,R,1,2019_Aug_29_0918,SST,3.0.7,24.009987596959494,
go,sst_images/Right_Arrow.bmp,None,2,968,None,0,76,76,76,,2,1,0.4174958920048084,go,0.2,0.968,1.968,023,Scanner,R,1,2019_Aug_29_0918,SST,3.0.7,24.009987596959494,
go,sst_images/Right_Arrow.bmp,None,2,781,None,0,77,77,77,,1,0,0.42184077101410367,go,0.2,0.781,1.7810000000000001,023,Scanner,R,1,2019_Aug_29_0918,SST,3.0.7,24.009987596959494,
go,sst_images/Left_Arrow.bmp,None,1,714,None,0,78,78,78,,1,1,0.5446631780068856,go,0.2,0.714,1.714,023,Scanner,R,1,2019_Aug_29_0918,SST,3.0.7,24.009987596959494,
go,sst_images/Left_Arrow.bmp,None,1,779,None,0,79,79,79,,1,1,0.6286815799830947,go,0.2,0.779,1.779,023,Scanner,R,1,2019_Aug_29_0918,SST,3.0.7,24.009987596959494,
go,sst_images/Right_Arrow.bmp,None,2,961,None,0,80,80,80,,2,1,0.6676500379981007,go,0.2,0.961,1.9609999999999999,023,Scanner,R,1,2019_Aug_29_0918,SST,3.0.7,24.009987596959494,
go,sst_images/Right_Arrow.bmp,None,2,799,None,0,81,81,81,,2,1,0.5869045330036897,go,0.2,0.799,1.799,023,Scanner,R,1,2019_Aug_29_0918,SST,3.0.7,24.009987596959494,
go,sst_images/Right_Arrow.bmp,None,2,1308,None,0,82,82,82,,2,1,0.46166126301977783,go,0.2,1.308,2.308,023,Scanner,R,1,2019_Aug_29_0918,SST,3.0.7,24.009987596959494,
stop,sst_images/Left_Arrow.bmp,sst_images/Stop_Arrow.bmp,none,796,None,0,83,83,83,,1,0,0.5458764790091664,stop,0.15000000000000002,0.796,1.7501235209908337,023,Scanner,R,1,2019_Aug_29_0918,SST,3.0.7,24.009987596959494,
go,sst_images/Left_Arrow.bmp,None,1,718,None,0,84,84,84,,1,1,0.5878375199972652,go,0.15000000000000002,0.718,1.718,023,Scanner,R,1,2019_Aug_29_0918,SST,3.0.7,24.009987596959494,
go,sst_images/Left_Arrow.bmp,None,1,1258,None,0,85,85,85,,1,1,0.4616733140137512,go,0.15000000000000002,1.258,2.258,023,Scanner,R,1,2019_Aug_29_0918,SST,3.0.7,24.009987596959494,
go,sst_images/Right_Arrow.bmp,None,2,1026,None,0,86,86,86,,2,1,0.5446822249796242,go,0.15000000000000002,1.026,2.026,023,Scanner,R,1,2019_Aug_29_0918,SST,3.0.7,24.009987596959494,
go,sst_images/Left_Arrow.bmp,None,1,1531,None,0,87,87,87,,1,1,0.586530386004597,go,0.15000000000000002,1.531,2.5309999999999997,023,Scanner,R,1,2019_Aug_29_0918,SST,3.0.7,24.009987596959494,
go,sst_images/Right_Arrow.bmp,None,2,874,None,0,88,88,88,,2,1,0.5854129569779616,go,0.15000000000000002,0.874,1.874,023,Scanner,R,1,2019_Aug_29_0918,SST,3.0.7,24.009987596959494,
go,sst_images/Left_Arrow.bmp,None,1,923,None,0,89,89,89,,1,1,0.6298601389862597,go,0.15000000000000002,0.923,1.923,023,Scanner,R,1,2019_Aug_29_0918,SST,3.0.7,24.009987596959494,
go,sst_images/Right_Arrow.bmp,None,2,1602,None,0,90,90,90,,2,1,0.4652033449965529,go,0.15000000000000002,1.602,2.6020000000000003,023,Scanner,R,1,2019_Aug_29_0918,SST,3.0.7,24.009987596959494,
go,sst_images/Left_Arrow.bmp,None,1,827,None,0,91,91,91,,1,1,0.5445961389923468,go,0.15000000000000002,0.827,1.827,023,Scanner,R,1,2019_Aug_29_0918,SST,3.0.7,24.009987596959494,
stop,sst_images/Right_Arrow.bmp,sst_images/Stop_Arrow.bmp,none,732,None,0,92,92,92,,None,1,,stop,0.2,0.732,1.732,023,Scanner,R,1,2019_Aug_29_0918,SST,3.0.7,24.009987596959494,
go,sst_images/Left_Arrow.bmp,None,1,728,None,0,93,93,93,,1,1,0.5457414030097425,go,0.2,0.728,1.728,023,Scanner,R,1,2019_Aug_29_0918,SST,3.0.7,24.009987596959494,
go,sst_images/Left_Arrow.bmp,None,1,730,None,0,94,94,94,,1,1,0.5890847069968004,go,0.2,0.73,1.73,023,Scanner,R,1,2019_Aug_29_0918,SST,3.0.7,24.009987596959494,
go,sst_images/Right_Arrow.bmp,None,2,802,None,0,95,95,95,,2,1,0.6271634430158883,go,0.2,0.802,1.802,023,Scanner,R,1,2019_Aug_29_0918,SST,3.0.7,24.009987596959494,
go,sst_images/Left_Arrow.bmp,None,1,721,None,0,96,96,96,,1,1,0.5061432629881892,go,0.2,0.721,1.721,023,Scanner,R,1,2019_Aug_29_0918,SST,3.0.7,24.009987596959494,
stop,sst_images/Right_Arrow.bmp,sst_images/Stop_Arrow.bmp,none,730,None,0,97,97,97,,2,0,0.437749824981438,stop,0.15000000000000002,0.73,1.792250175018562,023,Scanner,R,1,2019_Aug_29_0918,SST,3.0.7,24.009987596959494,
go,sst_images/Right_Arrow.bmp,None,2,1026,None,0,98,98,98,,2,1,0.6722676019999199,go,0.15000000000000002,1.026,2.026,023,Scanner,R,1,2019_Aug_29_0918,SST,3.0.7,24.009987596959494,
go,sst_images/Right_Arrow.bmp,None,2,790,None,0,99,99,99,,2,1,0.7125252159894444,go,0.15000000000000002,0.79,1.79,023,Scanner,R,1,2019_Aug_29_0918,SST,3.0.7,24.009987596959494,
go,sst_images/Left_Arrow.bmp,None,1,1246,None,0,100,100,100,,1,1,0.6724012689955998,go,0.15000000000000002,1.246,2.246,023,Scanner,R,1,2019_Aug_29_0918,SST,3.0.7,24.009987596959494,
stop,sst_images/Left_Arrow.bmp,sst_images/Stop_Arrow.bmp,none,1183,None,0,101,101,101,,None,1,,stop,0.2,1.183,2.183,023,Scanner,R,1,2019_Aug_29_0918,SST,3.0.7,24.009987596959494,
go,sst_images/Right_Arrow.bmp,None,2,709,None,0,102,102,102,,2,1,0.5455627260089386,go,0.2,0.709,1.709,023,Scanner,R,1,2019_Aug_29_0918,SST,3.0.7,24.009987596959494,
go,sst_images/Right_Arrow.bmp,None,2,731,None,0,103,103,103,,2,1,0.6698685199953616,go,0.2,0.731,1.7309999999999999,023,Scanner,R,1,2019_Aug_29_0918,SST,3.0.7,24.009987596959494,
go,sst_images/Left_Arrow.bmp,None,1,726,None,0,104,104,104,,1,1,0.6310311580018606,go,0.2,0.726,1.726,023,Scanner,R,1,2019_Aug_29_0918,SST,3.0.7,24.009987596959494,
go,sst_images/Left_Arrow.bmp,None,1,842,None,0,105,105,105,,1,1,0.6268633420113474,go,0.2,0.842,1.842,023,Scanner,R,1,2019_Aug_29_0918,SST,3.0.7,24.009987596959494,
go,sst_images/Right_Arrow.bmp,None,2,706,None,0,106,106,106,,2,1,0.630575229995884,go,0.2,0.706,1.706,023,Scanner,R,1,2019_Aug_29_0918,SST,3.0.7,24.009987596959494,
go,sst_images/Right_Arrow.bmp,None,2,718,None,0,107,107,107,,2,1,0.6284429639927112,go,0.2,0.718,1.718,023,Scanner,R,1,2019_Aug_29_0918,SST,3.0.7,24.009987596959494,
stop,sst_images/Left_Arrow.bmp,sst_images/Stop_Arrow.bmp,none,816,None,0,108,108,108,,None,1,,stop,0.25,0.816,1.8159999999999998,023,Scanner,R,1,2019_Aug_29_0918,SST,3.0.7,24.009987596959494,
go,sst_images/Left_Arrow.bmp,None,1,834,None,0,109,109,109,,1,1,0.5034899070160463,go,0.25,0.834,1.834,023,Scanner,R,1,2019_Aug_29_0918,SST,3.0.7,24.009987596959494,
go,sst_images/Right_Arrow.bmp,None,2,898,None,0,110,110,110,,2,1,0.500793587998487,go,0.25,0.898,1.8980000000000001,023,Scanner,R,1,2019_Aug_29_0918,SST,3.0.7,24.009987596959494,
go,sst_images/Left_Arrow.bmp,None,1,1726,None,0,111,111,111,,1,1,0.497987020004075,go,0.25,1.726,2.726,023,Scanner,R,1,2019_Aug_29_0918,SST,3.0.7,24.009987596959494,
go,sst_images/Right_Arrow.bmp,None,2,929,None,0,112,112,112,,2,1,0.5062006009975448,go,0.25,0.929,1.929,023,Scanner,R,1,2019_Aug_29_0918,SST,3.0.7,24.009987596959494,
go,sst_images/Left_Arrow.bmp,None,1,1298,None,0,113,113,113,,1,1,0.5447100639867131,go,0.25,1.298,2.298,023,Scanner,R,1,2019_Aug_29_0918,SST,3.0.7,24.009987596959494,
go,sst_images/Right_Arrow.bmp,None,2,1043,None,0,114,114,114,,2,1,0.5035612330248114,go,0.25,1.043,2.043,023,Scanner,R,1,2019_Aug_29_0918,SST,3.0.7,24.009987596959494,
go,sst_images/Left_Arrow.bmp,None,1,790,None,0,115,115,115,,1,1,0.502313156001037,go,0.25,0.79,1.79,023,Scanner,R,1,2019_Aug_29_0918,SST,3.0.7,24.009987596959494,
go,sst_images/Right_Arrow.bmp,None,2,724,None,0,116,116,116,,2,1,0.5447371199843474,go,0.25,0.724,1.724,023,Scanner,R,1,2019_Aug_29_0918,SST,3.0.7,24.009987596959494,
stop,sst_images/Right_Arrow.bmp,sst_images/Stop_Arrow.bmp,none,953,None,0,117,117,117,,None,1,,stop,0.3,0.953,1.953,023,Scanner,R,1,2019_Aug_29_0918,SST,3.0.7,24.009987596959494,
go,sst_images/Left_Arrow.bmp,None,1,708,None,0,118,118,118,,1,1,0.5031087750103325,go,0.3,0.708,1.708,023,Scanner,R,1,2019_Aug_29_0918,SST,3.0.7,24.009987596959494,
go,sst_images/Right_Arrow.bmp,None,2,986,None,0,119,119,119,,2,1,0.6295264599903021,go,0.3,0.986,1.986,023,Scanner,R,1,2019_Aug_29_0918,SST,3.0.7,24.009987596959494,
go,sst_images/Left_Arrow.bmp,None,1,887,None,0,120,120,120,,1,1,0.6279508259904105,go,0.3,0.887,1.887,023,Scanner,R,1,2019_Aug_29_0918,SST,3.0.7,24.009987596959494,
go,sst_images/Right_Arrow.bmp,None,2,978,None,0,121,121,121,,2,1,0.5453413579962216,go,0.3,0.978,1.978,023,Scanner,R,1,2019_Aug_29_0918,SST,3.0.7,24.009987596959494,
go,sst_images/Right_Arrow.bmp,None,2,729,None,0,122,122,122,,2,1,0.7127307250048034,go,0.3,0.729,1.729,023,Scanner,R,1,2019_Aug_29_0918,SST,3.0.7,24.009987596959494,
go,sst_images/Left_Arrow.bmp,None,1,735,None,0,123,123,123,,1,1,0.5788661599799525,go,0.3,0.735,1.7349999999999999,023,Scanner,R,1,2019_Aug_29_0918,SST,3.0.7,24.009987596959494,
stop,sst_images/Left_Arrow.bmp,sst_images/Stop_Arrow.bmp,none,838,None,0,124,124,124,,1,0,0.6518382030189969,stop,0.25,0.838,1.7861617969810033,023,Scanner,R,1,2019_Aug_29_0918,SST,3.0.7,24.009987596959494,
go,sst_images/Left_Arrow.bmp,None,1,832,None,0,125,125,125,,1,1,0.6723267399938777,go,0.25,0.832,1.8319999999999999,023,Scanner,R,1,2019_Aug_29_0918,SST,3.0.7,24.009987596959494,
go,sst_images/Left_Arrow.bmp,None,1,714,None,0,126,126,126,,1,1,0.5441877930134069,go,0.25,0.714,1.714,023,Scanner,R,1,2019_Aug_29_0918,SST,3.0.7,24.009987596959494,
go,sst_images/Right_Arrow.bmp,None,2,730,None,0,127,127,127,,2,1,0.7124924540112261,go,0.25,0.73,1.73,023,Scanner,R,1,2019_Aug_29_0918,SST,3.0.7,24.009987596959494,
go,sst_images/Left_Arrow.bmp,None,1,1027,None,0,128,128,128,,1,1,0.5424311980023049,go,0.25,1.027,2.027,023,Scanner,R,1,2019_Aug_29_0918,SST,3.0.7,24.009987596959494,
stop,sst_images/Left_Arrow.bmp,sst_images/Stop_Arrow.bmp,none,796,None,0,129,129,129,,1,0,0.5686205509991851,stop,0.2,0.796,1.777379449000815,023,Scanner,R,1,2019_Aug_29_0918,SST,3.0.7,24.009987596959494,
go,sst_images/Left_Arrow.bmp,None,1,764,None,0,130,130,130,,1,1,0.5863503750006203,go,0.2,0.764,1.764,023,Scanner,R,1,2019_Aug_29_0918,SST,3.0.7,24.009987596959494,
go,sst_images/Left_Arrow.bmp,None,1,742,None,0,131,131,131,,1,1,0.5019045590015594,go,0.2,0.742,1.742,023,Scanner,R,1,2019_Aug_29_0918,SST,3.0.7,24.009987596959494,
stop,sst_images/Right_Arrow.bmp,sst_images/Stop_Arrow.bmp,none,705,None,0,132,132,132,,None,1,,stop,0.25,0.705,1.7049999999999998,023,Scanner,R,1,2019_Aug_29_0918,SST,3.0.7,24.009987596959494,
go,sst_images/Right_Arrow.bmp,None,2,722,None,0,133,133,133,,2,1,0.7074250699952245,go,0.25,0.722,1.722,023,Scanner,R,1,2019_Aug_29_0918,SST,3.0.7,24.009987596959494,
go,sst_images/Left_Arrow.bmp,None,1,956,None,0,134,134,134,,1,1,0.6269630850001704,go,0.25,0.956,1.956,023,Scanner,R,1,2019_Aug_29_0918,SST,3.0.7,24.009987596959494,
go,sst_images/Left_Arrow.bmp,None,1,884,None,0,135,135,135,,1,1,0.6268430940108374,go,0.25,0.884,1.884,023,Scanner,R,1,2019_Aug_29_0918,SST,3.0.7,24.009987596959494,
stop,sst_images/Left_Arrow.bmp,sst_images/Stop_Arrow.bmp,none,722,None,0,136,136,136,,1,0,0.5232138469873462,stop,0.2,0.722,1.7487861530126538,023,Scanner,R,1,2019_Aug_29_0918,SST,3.0.7,24.009987596959494,
go,sst_images/Right_Arrow.bmp,None,2,816,None,0,137,137,137,,2,1,0.5046034570259508,go,0.2,0.816,1.8159999999999998,023,Scanner,R,1,2019_Aug_29_0918,SST,3.0.7,24.009987596959494,
go,sst_images/Right_Arrow.bmp,None,2,846,None,0,138,138,138,,2,1,0.5043595040042419,go,0.2,0.846,1.846,023,Scanner,R,1,2019_Aug_29_0918,SST,3.0.7,24.009987596959494,
go,sst_images/Left_Arrow.bmp,None,1,1091,None,0,139,139,139,,1,1,0.6277150940150023,go,0.2,1.091,2.091,023,Scanner,R,1,2019_Aug_29_0918,SST,3.0.7,24.009987596959494,
go,sst_images/Right_Arrow.bmp,None,2,1235,None,0,140,140,140,,2,1,0.753527266002493,go,0.2,1.235,2.2350000000000003,023,Scanner,R,1,2019_Aug_29_0918,SST,3.0.7,24.009987596959494,
go,sst_images/Left_Arrow.bmp,None,1,834,None,0,141,141,141,,1,1,0.5898757970135193,go,0.2,0.834,1.834,023,Scanner,R,1,2019_Aug_29_0918,SST,3.0.7,24.009987596959494,
stop,sst_images/Right_Arrow.bmp,sst_images/Stop_Arrow.bmp,none,850,None,0,142,142,142,,2,0,0.5305550019838847,stop,0.15000000000000002,0.85,1.8194449980161154,023,Scanner,R,1,2019_Aug_29_0918,SST,3.0.7,24.009987596959494,
go,sst_images/Left_Arrow.bmp,None,1,756,None,0,143,143,143,,1,1,0.7128771200077608,go,0.15000000000000002,0.756,1.756,023,Scanner,R,1,2019_Aug_29_0918,SST,3.0.7,24.009987596959494,
go,sst_images/Right_Arrow.bmp,None,2,846,None,0,144,144,144,,2,1,0.5849972240102943,go,0.15000000000000002,0.846,1.846,023,Scanner,R,1,2019_Aug_29_0918,SST,3.0.7,24.009987596959494,
go,sst_images/Left_Arrow.bmp,None,1,836,None,0,145,145,145,,1,1,0.4642003890185151,go,0.15000000000000002,0.836,1.8359999999999999,023,Scanner,R,1,2019_Aug_29_0918,SST,3.0.7,24.009987596959494,
go,sst_images/Right_Arrow.bmp,None,2,1172,None,0,146,146,146,,2,1,0.6263822579931002,go,0.15000000000000002,1.172,2.1719999999999997,023,Scanner,R,1,2019_Aug_29_0918,SST,3.0.7,24.009987596959494,
stop,sst_images/Right_Arrow.bmp,sst_images/Stop_Arrow.bmp,none,910,None,0,147,147,147,,None,1,,stop,0.2,0.91,1.91,023,Scanner,R,1,2019_Aug_29_0918,SST,3.0.7,24.009987596959494,
go,sst_images/Left_Arrow.bmp,None,1,802,None,0,148,148,148,,1,1,0.5855774539813865,go,0.2,0.802,1.802,023,Scanner,R,1,2019_Aug_29_0918,SST,3.0.7,24.009987596959494,
go,sst_images/Right_Arrow.bmp,None,2,729,None,0,149,149,149,,2,1,0.5853079669759609,go,0.2,0.729,1.729,023,Scanner,R,1,2019_Aug_29_0918,SST,3.0.7,24.009987596959494,
go,sst_images/Right_Arrow.bmp,None,2,838,None,0,150,150,150,,2,1,0.7097175710077863,go,0.2,0.838,1.838,023,Scanner,R,1,2019_Aug_29_0918,SST,3.0.7,24.009987596959494,
stop,sst_images/Left_Arrow.bmp,sst_images/Stop_Arrow.bmp,none,737,None,0,151,151,151,,1,0,0.5270939180045389,stop,0.15000000000000002,0.737,1.7099060819954612,023,Scanner,R,1,2019_Aug_29_0918,SST,3.0.7,24.009987596959494,
go,sst_images/Left_Arrow.bmp,None,1,902,None,0,152,152,152,,1,1,0.5884658340073656,go,0.15000000000000002,0.902,1.9020000000000001,023,Scanner,R,1,2019_Aug_29_0918,SST,3.0.7,24.009987596959494,
go,sst_images/Right_Arrow.bmp,None,2,812,None,0,153,153,153,,2,1,0.6293440329900477,go,0.15000000000000002,0.812,1.812,023,Scanner,R,1,2019_Aug_29_0918,SST,3.0.7,24.009987596959494,
stop,sst_images/Left_Arrow.bmp,sst_images/Stop_Arrow.bmp,none,1014,None,0,154,154,154,,None,1,,stop,0.2,1.014,2.014,023,Scanner,R,1,2019_Aug_29_0918,SST,3.0.7,24.009987596959494,
go,sst_images/Left_Arrow.bmp,None,1,736,None,0,155,155,155,,1,1,0.6698430939868558,go,0.2,0.736,1.736,023,Scanner,R,1,2019_Aug_29_0918,SST,3.0.7,24.009987596959494,
go,sst_images/Right_Arrow.bmp,None,2,1391,None,0,156,156,156,,2,1,0.49986995599465445,go,0.2,1.391,2.391,023,Scanner,R,1,2019_Aug_29_0918,SST,3.0.7,24.009987596959494,
go,sst_images/Left_Arrow.bmp,None,1,816,None,0,157,157,157,,1,1,0.58260365400929,go,0.2,0.816,1.8159999999999998,023,Scanner,R,1,2019_Aug_29_0918,SST,3.0.7,24.009987596959494,
go,sst_images/Right_Arrow.bmp,None,2,1047,None,0,158,158,158,,2,1,0.5042363840038888,go,0.2,1.047,2.0469999999999997,023,Scanner,R,1,2019_Aug_29_0918,SST,3.0.7,24.009987596959494,
stop,sst_images/Left_Arrow.bmp,sst_images/Stop_Arrow.bmp,none,1726,None,0,159,159,159,,None,1,,stop,0.25,1.726,2.726,023,Scanner,R,1,2019_Aug_29_0918,SST,3.0.7,24.009987596959494,
go,sst_images/Left_Arrow.bmp,None,1,730,None,0,160,160,160,,1,1,0.7109270600194577,go,0.25,0.73,1.73,023,Scanner,R,1,2019_Aug_29_0918,SST,3.0.7,24.009987596959494,
go,sst_images/Left_Arrow.bmp,None,1,870,None,0,161,161,161,,1,1,0.6290957599994726,go,0.25,0.87,1.87,023,Scanner,R,1,2019_Aug_29_0918,SST,3.0.7,24.009987596959494,
go,sst_images/Right_Arrow.bmp,None,2,1053,None,0,162,162,162,,2,1,0.6689959270006511,go,0.25,1.053,2.053,023,Scanner,R,1,2019_Aug_29_0918,SST,3.0.7,24.009987596959494,
go,sst_images/Left_Arrow.bmp,None,1,958,None,0,163,163,163,,1,1,0.5287925750017166,go,0.25,0.958,1.958,023,Scanner,R,1,2019_Aug_29_0918,SST,3.0.7,24.009987596959494,
go,sst_images/Right_Arrow.bmp,None,2,1014,None,0,164,164,164,,2,1,0.6257895659946371,go,0.25,1.014,2.0140000000000002,023,Scanner,R,1,2019_Aug_29_0918,SST,3.0.7,24.009987596959494,
go,sst_images/Right_Arrow.bmp,None,2,802,None,0,165,165,165,,2,1,0.7135184789949562,go,0.25,0.802,1.802,023,Scanner,R,1,2019_Aug_29_0918,SST,3.0.7,24.009987596959494,
go,sst_images/Right_Arrow.bmp,None,2,784,None,0,166,166,166,,2,1,0.7111775770026725,go,0.25,0.784,1.784,023,Scanner,R,1,2019_Aug_29_0918,SST,3.0.7,24.009987596959494,
stop,sst_images/Right_Arrow.bmp,sst_images/Stop_Arrow.bmp,none,718,None,0,167,167,167,,None,1,,stop,0.3,0.718,1.718,023,Scanner,R,1,2019_Aug_29_0918,SST,3.0.7,24.009987596959494,
go,sst_images/Left_Arrow.bmp,None,1,1038,None,0,168,168,168,,1,1,0.5861748829775024,go,0.3,1.038,2.0380000000000003,023,Scanner,R,1,2019_Aug_29_0918,SST,3.0.7,24.009987596959494,
go,sst_images/Right_Arrow.bmp,None,2,705,None,0,169,169,169,,2,1,0.6715678960026708,go,0.3,0.705,1.705,023,Scanner,R,1,2019_Aug_29_0918,SST,3.0.7,24.009987596959494,
go,sst_images/Right_Arrow.bmp,None,2,853,None,0,170,170,170,,2,1,0.6277782969991677,go,0.3,0.853,1.853,023,Scanner,R,1,2019_Aug_29_0918,SST,3.0.7,24.009987596959494,
go,sst_images/Left_Arrow.bmp,None,1,861,None,0,171,171,171,,1,1,0.7145513470168225,go,0.3,0.861,1.861,023,Scanner,R,1,2019_Aug_29_0918,SST,3.0.7,24.009987596959494,
go,sst_images/Right_Arrow.bmp,None,2,1280,None,0,172,172,172,,2,1,0.5850162159767933,go,0.3,1.28,2.2800000000000002,023,Scanner,R,1,2019_Aug_29_0918,SST,3.0.7,24.009987596959494,
stop,sst_images/Left_Arrow.bmp,sst_images/Stop_Arrow.bmp,none,1026,None,0,173,173,173,,1,0,0.5242972720006946,stop,0.25,1.026,2.1017027279993052,023,Scanner,R,1,2019_Aug_29_0918,SST,3.0.7,24.009987596959494,
go,sst_images/Right_Arrow.bmp,None,2,1176,None,0,174,174,174,,2,1,0.7118946910195518,go,0.25,1.176,2.176,023,Scanner,R,1,2019_Aug_29_0918,SST,3.0.7,24.009987596959494,
go,sst_images/Right_Arrow.bmp,None,2,782,None,0,175,175,175,,2,1,0.7548840380040929,go,0.25,0.782,1.782,023,Scanner,R,1,2019_Aug_29_0918,SST,3.0.7,24.009987596959494,
go,sst_images/Left_Arrow.bmp,None,1,881,None,0,176,176,176,,1,1,0.6713264069985598,go,0.25,0.881,1.881,023,Scanner,R,1,2019_Aug_29_0918,SST,3.0.7,24.009987596959494,
go,sst_images/Right_Arrow.bmp,None,2,1235,None,0,177,177,177,,2,1,0.6393128460040316,go,0.25,1.235,2.2350000000000003,023,Scanner,R,1,2019_Aug_29_0918,SST,3.0.7,24.009987596959494,
go,sst_images/Left_Arrow.bmp,None,1,1432,None,0,178,178,178,,1,1,0.5456889430060983,go,0.25,1.432,2.432,023,Scanner,R,1,2019_Aug_29_0918,SST,3.0.7,24.009987596959494,
go,sst_images/Right_Arrow.bmp,None,2,750,4023.0,0,179,179,179,,2,1,0.49105851899366826,go,0.25,0.75,1.75,023,Scanner,R,1,2019_Aug_29_0918,SST,3.0.7,24.009987596959494,
