trial_type,arrow_1,arrow_2,corrAns,jitter,run_end_fixation,trials.thisRepN,trials.thisTrialN,trials.thisN,trials.thisIndex,randomized TrialOrder,key_response.keys,key_response.corr,key_response.rt,trial_t.routineEndVal,ss_delay,iti_duration,SOA,participant,prac_or_scan,handedness,run,date,expName,psychopyVersion,frameRate,
go,sst_images/Left_Arrow.bmp,None,1,718,None,0,0,0,0,5,1,1,0.6374399620108306,go,0.05,0.718,1.718,025,Scanner,L,1,2019_Sep_02_0932,SST,3.0.7,59.96184219191246,
go,sst_images/Right_Arrow.bmp,None,2,817,None,0,1,1,1,,2,1,0.45582886500051245,go,0.05,0.817,1.817,025,Scanner,L,1,2019_Sep_02_0932,SST,3.0.7,59.96184219191246,
go,sst_images/Right_Arrow.bmp,None,2,702,None,0,2,2,2,,2,1,0.4048015149892308,go,0.05,0.702,1.702,025,Scanner,L,1,2019_Sep_02_0932,SST,3.0.7,59.96184219191246,
stop,sst_images/Right_Arrow.bmp,sst_images/Stop_Arrow.bmp,none,721,None,0,3,3,3,,None,1,,stop,0.1,0.721,1.721,025,Scanner,L,1,2019_Sep_02_0932,SST,3.0.7,59.96184219191246,
go,sst_images/Left_Arrow.bmp,None,1,726,None,0,4,4,4,,1,1,0.37076453800546005,go,0.1,0.726,1.726,025,Scanner,L,1,2019_Sep_02_0932,SST,3.0.7,59.96184219191246,
go,sst_images/Left_Arrow.bmp,None,1,949,None,0,5,5,5,,1,1,0.6528204130008817,go,0.1,0.949,1.9489999999999998,025,Scanner,L,1,2019_Sep_02_0932,SST,3.0.7,59.96184219191246,
go,sst_images/Right_Arrow.bmp,None,2,743,None,0,6,6,6,,2,1,0.37070726201636717,go,0.1,0.743,1.7429999999999999,025,Scanner,L,1,2019_Sep_02_0932,SST,3.0.7,59.96184219191246,
go,sst_images/Left_Arrow.bmp,None,1,735,None,0,7,7,7,,1,1,0.40424548799637705,go,0.1,0.735,1.7349999999999999,025,Scanner,L,1,2019_Sep_02_0932,SST,3.0.7,59.96184219191246,
stop,sst_images/Left_Arrow.bmp,sst_images/Stop_Arrow.bmp,none,1283,None,0,8,8,8,,None,1,,stop,0.15000000000000002,1.283,2.283,025,Scanner,L,1,2019_Sep_02_0932,SST,3.0.7,59.96184219191246,
go,sst_images/Right_Arrow.bmp,None,2,1396,None,0,9,9,9,,2,1,0.35373451898340136,go,0.15000000000000002,1.396,2.396,025,Scanner,L,1,2019_Sep_02_0932,SST,3.0.7,59.96184219191246,
go,sst_images/Right_Arrow.bmp,None,2,1045,None,0,10,10,10,,2,1,0.5709715460543521,go,0.15000000000000002,1.045,2.045,025,Scanner,L,1,2019_Sep_02_0932,SST,3.0.7,59.96184219191246,
go,sst_images/Left_Arrow.bmp,None,1,758,None,0,11,11,11,,1,1,0.4186813560081646,go,0.15000000000000002,0.758,1.758,025,Scanner,L,1,2019_Sep_02_0932,SST,3.0.7,59.96184219191246,
go,sst_images/Right_Arrow.bmp,None,2,1440,None,0,12,12,12,,2,1,0.35515956400195137,go,0.15000000000000002,1.44,2.44,025,Scanner,L,1,2019_Sep_02_0932,SST,3.0.7,59.96184219191246,
go,sst_images/Left_Arrow.bmp,None,1,1143,None,0,13,13,13,,1,1,0.3868418019847013,go,0.15000000000000002,1.143,2.143,025,Scanner,L,1,2019_Sep_02_0932,SST,3.0.7,59.96184219191246,
go,sst_images/Left_Arrow.bmp,None,1,721,None,0,14,14,14,,1,1,0.5697687429492362,go,0.15000000000000002,0.721,1.721,025,Scanner,L,1,2019_Sep_02_0932,SST,3.0.7,59.96184219191246,
stop,sst_images/Left_Arrow.bmp,sst_images/Stop_Arrow.bmp,none,765,None,0,15,15,15,,None,1,,stop,0.2,0.765,1.765,025,Scanner,L,1,2019_Sep_02_0932,SST,3.0.7,59.96184219191246,
go,sst_images/Left_Arrow.bmp,None,1,1009,None,0,16,16,16,,1,1,0.435383485048078,go,0.2,1.009,2.009,025,Scanner,L,1,2019_Sep_02_0932,SST,3.0.7,59.96184219191246,
go,sst_images/Right_Arrow.bmp,None,2,994,None,0,17,17,17,,2,1,0.40476833196589723,go,0.2,0.994,1.994,025,Scanner,L,1,2019_Sep_02_0932,SST,3.0.7,59.96184219191246,
go,sst_images/Left_Arrow.bmp,None,1,837,None,0,18,18,18,,1,1,0.38823899102862924,go,0.2,0.837,1.837,025,Scanner,L,1,2019_Sep_02_0932,SST,3.0.7,59.96184219191246,
stop,sst_images/Right_Arrow.bmp,sst_images/Stop_Arrow.bmp,none,710,None,0,19,19,19,,2,0,0.36702803696971387,stop,0.15000000000000002,0.71,1.842971963030286,025,Scanner,L,1,2019_Sep_02_0932,SST,3.0.7,59.96184219191246,
go,sst_images/Left_Arrow.bmp,None,1,908,None,0,20,20,20,,1,1,0.42178471403894946,go,0.15000000000000002,0.908,1.908,025,Scanner,L,1,2019_Sep_02_0932,SST,3.0.7,59.96184219191246,
go,sst_images/Right_Arrow.bmp,None,2,731,None,0,21,21,21,,2,1,0.35327865701401606,go,0.15000000000000002,0.731,1.7309999999999999,025,Scanner,L,1,2019_Sep_02_0932,SST,3.0.7,59.96184219191246,
go,sst_images/Left_Arrow.bmp,None,1,1486,None,0,22,22,22,,1,1,0.4876295509748161,go,0.15000000000000002,1.486,2.4859999999999998,025,Scanner,L,1,2019_Sep_02_0932,SST,3.0.7,59.96184219191246,
go,sst_images/Right_Arrow.bmp,None,2,1113,None,0,23,23,23,,2,1,0.45330852799816057,go,0.15000000000000002,1.113,2.113,025,Scanner,L,1,2019_Sep_02_0932,SST,3.0.7,59.96184219191246,
stop,sst_images/Right_Arrow.bmp,sst_images/Stop_Arrow.bmp,none,962,None,0,24,24,24,,None,1,,stop,0.2,0.962,1.962,025,Scanner,L,1,2019_Sep_02_0932,SST,3.0.7,59.96184219191246,
go,sst_images/Left_Arrow.bmp,None,1,761,None,0,25,25,25,,1,1,0.3696963269612752,go,0.2,0.761,1.7610000000000001,025,Scanner,L,1,2019_Sep_02_0932,SST,3.0.7,59.96184219191246,
go,sst_images/Right_Arrow.bmp,None,2,836,None,0,26,26,26,,2,1,0.37123198801418766,go,0.2,0.836,1.8359999999999999,025,Scanner,L,1,2019_Sep_02_0932,SST,3.0.7,59.96184219191246,
go,sst_images/Right_Arrow.bmp,None,2,1081,None,0,27,27,27,,2,1,0.4532193549675867,go,0.2,1.081,2.081,025,Scanner,L,1,2019_Sep_02_0932,SST,3.0.7,59.96184219191246,
stop,sst_images/Left_Arrow.bmp,sst_images/Stop_Arrow.bmp,none,781,None,0,28,28,28,,None,1,,stop,0.25,0.781,1.781,025,Scanner,L,1,2019_Sep_02_0932,SST,3.0.7,59.96184219191246,
go,sst_images/Left_Arrow.bmp,None,1,962,None,0,29,29,29,,1,1,0.40248867898480967,go,0.25,0.962,1.962,025,Scanner,L,1,2019_Sep_02_0932,SST,3.0.7,59.96184219191246,
go,sst_images/Right_Arrow.bmp,None,2,1037,None,0,30,30,30,,2,1,0.5383323350106366,go,0.25,1.037,2.037,025,Scanner,L,1,2019_Sep_02_0932,SST,3.0.7,59.96184219191246,
go,sst_images/Right_Arrow.bmp,None,2,908,None,0,31,31,31,,2,1,0.5360635170363821,go,0.25,0.908,1.908,025,Scanner,L,1,2019_Sep_02_0932,SST,3.0.7,59.96184219191246,
go,sst_images/Left_Arrow.bmp,None,1,798,None,0,32,32,32,,1,1,0.4548223869642243,go,0.25,0.798,1.798,025,Scanner,L,1,2019_Sep_02_0932,SST,3.0.7,59.96184219191246,
stop,sst_images/Right_Arrow.bmp,sst_images/Stop_Arrow.bmp,none,886,None,0,33,33,33,,2,0,0.36925531597808003,stop,0.2,0.886,2.06674468402192,025,Scanner,L,1,2019_Sep_02_0932,SST,3.0.7,59.96184219191246,
go,sst_images/Right_Arrow.bmp,None,2,753,None,0,34,34,34,,2,1,0.42115675599779934,go,0.2,0.753,1.7530000000000001,025,Scanner,L,1,2019_Sep_02_0932,SST,3.0.7,59.96184219191246,
go,sst_images/Left_Arrow.bmp,None,1,703,None,0,35,35,35,,1,1,0.40316837397404015,go,0.2,0.703,1.7029999999999998,025,Scanner,L,1,2019_Sep_02_0932,SST,3.0.7,59.96184219191246,
go,sst_images/Left_Arrow.bmp,None,1,715,None,0,36,36,36,,1,1,0.48514711804455146,go,0.2,0.715,1.7149999999999999,025,Scanner,L,1,2019_Sep_02_0932,SST,3.0.7,59.96184219191246,
stop,sst_images/Right_Arrow.bmp,sst_images/Stop_Arrow.bmp,none,734,None,0,37,37,37,,None,1,,stop,0.25,0.734,1.734,025,Scanner,L,1,2019_Sep_02_0932,SST,3.0.7,59.96184219191246,
go,sst_images/Right_Arrow.bmp,None,2,817,None,0,38,38,38,,2,1,0.372255964030046,go,0.25,0.817,1.817,025,Scanner,L,1,2019_Sep_02_0932,SST,3.0.7,59.96184219191246,
go,sst_images/Right_Arrow.bmp,None,2,1160,None,0,39,39,39,,2,1,0.43039504397893324,go,0.25,1.16,2.16,025,Scanner,L,1,2019_Sep_02_0932,SST,3.0.7,59.96184219191246,
go,sst_images/Left_Arrow.bmp,None,1,719,None,0,40,40,40,,1,1,0.4219706259900704,go,0.25,0.719,1.7189999999999999,025,Scanner,L,1,2019_Sep_02_0932,SST,3.0.7,59.96184219191246,
go,sst_images/Left_Arrow.bmp,None,1,966,None,0,41,41,41,,1,1,0.5535117569961585,go,0.25,0.966,1.966,025,Scanner,L,1,2019_Sep_02_0932,SST,3.0.7,59.96184219191246,
go,sst_images/Right_Arrow.bmp,None,2,838,None,0,42,42,42,,2,1,0.4367146809818223,go,0.25,0.838,1.838,025,Scanner,L,1,2019_Sep_02_0932,SST,3.0.7,59.96184219191246,
go,sst_images/Left_Arrow.bmp,None,1,1026,None,0,43,43,43,,1,1,0.41902377095539123,go,0.25,1.026,2.026,025,Scanner,L,1,2019_Sep_02_0932,SST,3.0.7,59.96184219191246,
go,sst_images/Left_Arrow.bmp,None,1,752,None,0,44,44,44,,1,1,0.47945891704875976,go,0.25,0.752,1.752,025,Scanner,L,1,2019_Sep_02_0932,SST,3.0.7,59.96184219191246,
go,sst_images/Right_Arrow.bmp,None,2,1167,None,0,45,45,45,,2,1,0.45357915601925924,go,0.25,1.167,2.167,025,Scanner,L,1,2019_Sep_02_0932,SST,3.0.7,59.96184219191246,
go,sst_images/Right_Arrow.bmp,None,2,1299,None,0,46,46,46,,2,1,0.442404585017357,go,0.25,1.299,2.299,025,Scanner,L,1,2019_Sep_02_0932,SST,3.0.7,59.96184219191246,
go,sst_images/Right_Arrow.bmp,None,2,886,None,0,47,47,47,,2,1,0.37004224897827953,go,0.25,0.886,1.8860000000000001,025,Scanner,L,1,2019_Sep_02_0932,SST,3.0.7,59.96184219191246,
go,sst_images/Left_Arrow.bmp,None,1,923,None,0,48,48,48,,1,1,0.41992586001288146,go,0.25,0.923,1.923,025,Scanner,L,1,2019_Sep_02_0932,SST,3.0.7,59.96184219191246,
stop,sst_images/Left_Arrow.bmp,sst_images/Stop_Arrow.bmp,none,1265,None,0,49,49,49,,1,0,0.386861142993439,stop,0.2,1.265,2.4281388570065605,025,Scanner,L,1,2019_Sep_02_0932,SST,3.0.7,59.96184219191246,
go,sst_images/Left_Arrow.bmp,None,1,841,None,0,50,50,50,,1,1,0.48627624299842864,go,0.2,0.841,1.841,025,Scanner,L,1,2019_Sep_02_0932,SST,3.0.7,59.96184219191246,
go,sst_images/Left_Arrow.bmp,None,1,1062,None,0,51,51,51,,1,1,0.45241285098018125,go,0.2,1.062,2.0620000000000003,025,Scanner,L,1,2019_Sep_02_0932,SST,3.0.7,59.96184219191246,
go,sst_images/Right_Arrow.bmp,None,2,750,None,0,52,52,52,,2,1,0.33735956699820235,go,0.2,0.75,1.75,025,Scanner,L,1,2019_Sep_02_0932,SST,3.0.7,59.96184219191246,
go,sst_images/Right_Arrow.bmp,None,2,825,None,0,53,53,53,,2,1,0.37095754797337577,go,0.2,0.825,1.825,025,Scanner,L,1,2019_Sep_02_0932,SST,3.0.7,59.96184219191246,
go,sst_images/Left_Arrow.bmp,None,1,813,None,0,54,54,54,,1,1,0.43837013602023944,go,0.2,0.813,1.813,025,Scanner,L,1,2019_Sep_02_0932,SST,3.0.7,59.96184219191246,
stop,sst_images/Right_Arrow.bmp,sst_images/Stop_Arrow.bmp,none,733,None,0,55,55,55,,2,0,0.3720599809894338,stop,0.15000000000000002,0.733,1.8609400190105663,025,Scanner,L,1,2019_Sep_02_0932,SST,3.0.7,59.96184219191246,
go,sst_images/Left_Arrow.bmp,None,1,1066,None,0,56,56,56,,1,1,0.37018066202290356,go,0.15000000000000002,1.066,2.066,025,Scanner,L,1,2019_Sep_02_0932,SST,3.0.7,59.96184219191246,
go,sst_images/Left_Arrow.bmp,None,1,712,None,0,57,57,57,,1,1,0.4542520249960944,go,0.15000000000000002,0.712,1.712,025,Scanner,L,1,2019_Sep_02_0932,SST,3.0.7,59.96184219191246,
go,sst_images/Right_Arrow.bmp,None,2,724,None,0,58,58,58,,2,1,0.4025850770412944,go,0.15000000000000002,0.724,1.724,025,Scanner,L,1,2019_Sep_02_0932,SST,3.0.7,59.96184219191246,
go,sst_images/Left_Arrow.bmp,None,1,878,None,0,59,59,59,,1,1,0.38513476797379553,go,0.15000000000000002,0.878,1.8780000000000001,025,Scanner,L,1,2019_Sep_02_0932,SST,3.0.7,59.96184219191246,
stop,sst_images/Left_Arrow.bmp,sst_images/Stop_Arrow.bmp,none,714,None,0,60,60,60,,None,1,,stop,0.2,0.714,1.7139999999999997,025,Scanner,L,1,2019_Sep_02_0932,SST,3.0.7,59.96184219191246,
go,sst_images/Left_Arrow.bmp,None,1,1299,None,0,61,61,61,,1,1,0.4709114590077661,go,0.2,1.299,2.299,025,Scanner,L,1,2019_Sep_02_0932,SST,3.0.7,59.96184219191246,
go,sst_images/Right_Arrow.bmp,None,2,1045,None,0,62,62,62,,2,1,0.4029635380138643,go,0.2,1.045,2.045,025,Scanner,L,1,2019_Sep_02_0932,SST,3.0.7,59.96184219191246,
go,sst_images/Right_Arrow.bmp,None,2,845,None,0,63,63,63,,2,1,0.4509534419630654,go,0.2,0.845,1.845,025,Scanner,L,1,2019_Sep_02_0932,SST,3.0.7,59.96184219191246,
go,sst_images/Left_Arrow.bmp,None,1,847,None,0,64,64,64,,1,1,0.5085700299823657,go,0.2,0.847,1.847,025,Scanner,L,1,2019_Sep_02_0932,SST,3.0.7,59.96184219191246,
go,sst_images/Right_Arrow.bmp,None,2,901,None,0,65,65,65,,2,1,0.38638315099524334,go,0.2,0.901,1.901,025,Scanner,L,1,2019_Sep_02_0932,SST,3.0.7,59.96184219191246,
go,sst_images/Left_Arrow.bmp,None,1,846,None,0,66,66,66,,1,1,0.43668267998145893,go,0.2,0.846,1.846,025,Scanner,L,1,2019_Sep_02_0932,SST,3.0.7,59.96184219191246,
go,sst_images/Right_Arrow.bmp,None,2,701,None,0,67,67,67,,2,1,0.33744742500130087,go,0.2,0.701,1.701,025,Scanner,L,1,2019_Sep_02_0932,SST,3.0.7,59.96184219191246,
stop,sst_images/Right_Arrow.bmp,sst_images/Stop_Arrow.bmp,none,795,None,0,68,68,68,,2,0,0.41852914000628516,stop,0.15000000000000002,0.795,1.8764708599937148,025,Scanner,L,1,2019_Sep_02_0932,SST,3.0.7,59.96184219191246,
go,sst_images/Right_Arrow.bmp,None,2,1009,None,0,69,69,69,,2,1,0.4113171470235102,go,0.15000000000000002,1.009,2.009,025,Scanner,L,1,2019_Sep_02_0932,SST,3.0.7,59.96184219191246,
go,sst_images/Left_Arrow.bmp,None,1,781,None,0,70,70,70,,1,1,0.42071432701777667,go,0.15000000000000002,0.781,1.7810000000000001,025,Scanner,L,1,2019_Sep_02_0932,SST,3.0.7,59.96184219191246,
go,sst_images/Right_Arrow.bmp,None,2,766,None,0,71,71,71,,2,1,0.36961214302573353,go,0.15000000000000002,0.766,1.766,025,Scanner,L,1,2019_Sep_02_0932,SST,3.0.7,59.96184219191246,
go,sst_images/Left_Arrow.bmp,None,1,1022,None,0,72,72,72,,1,1,0.3784555909805931,go,0.15000000000000002,1.022,2.0220000000000002,025,Scanner,L,1,2019_Sep_02_0932,SST,3.0.7,59.96184219191246,
go,sst_images/Right_Arrow.bmp,None,2,1018,None,0,73,73,73,,2,1,0.39505479601211846,go,0.15000000000000002,1.018,2.018,025,Scanner,L,1,2019_Sep_02_0932,SST,3.0.7,59.96184219191246,
go,sst_images/Left_Arrow.bmp,None,1,775,None,0,74,74,74,,1,1,0.3795394729822874,go,0.15000000000000002,0.775,1.775,025,Scanner,L,1,2019_Sep_02_0932,SST,3.0.7,59.96184219191246,
go,sst_images/Right_Arrow.bmp,None,2,922,None,0,75,75,75,,2,1,0.38841160997981206,go,0.15000000000000002,0.922,1.9220000000000002,025,Scanner,L,1,2019_Sep_02_0932,SST,3.0.7,59.96184219191246,
go,sst_images/Right_Arrow.bmp,None,2,1027,None,0,76,76,76,,2,1,0.36959726095665246,go,0.15000000000000002,1.027,2.027,025,Scanner,L,1,2019_Sep_02_0932,SST,3.0.7,59.96184219191246,
go,sst_images/Left_Arrow.bmp,None,1,732,None,0,77,77,77,,1,1,0.3751221669954248,go,0.15000000000000002,0.732,1.732,025,Scanner,L,1,2019_Sep_02_0932,SST,3.0.7,59.96184219191246,
stop,sst_images/Right_Arrow.bmp,sst_images/Stop_Arrow.bmp,none,763,None,0,78,78,78,,2,0,0.45987195102497935,stop,0.10000000000000002,0.763,1.7531280489750205,025,Scanner,L,1,2019_Sep_02_0932,SST,3.0.7,59.96184219191246,
go,sst_images/Left_Arrow.bmp,None,1,1101,None,0,79,79,79,,1,1,0.4790891250013374,go,0.10000000000000002,1.101,2.101,025,Scanner,L,1,2019_Sep_02_0932,SST,3.0.7,59.96184219191246,
go,sst_images/Right_Arrow.bmp,None,2,1110,None,0,80,80,80,,2,1,0.4288127379841171,go,0.10000000000000002,1.11,2.1100000000000003,025,Scanner,L,1,2019_Sep_02_0932,SST,3.0.7,59.96184219191246,
go,sst_images/Right_Arrow.bmp,None,2,735,None,0,81,81,81,,2,1,0.40340429701609537,go,0.10000000000000002,0.735,1.7349999999999999,025,Scanner,L,1,2019_Sep_02_0932,SST,3.0.7,59.96184219191246,
go,sst_images/Right_Arrow.bmp,None,2,776,None,0,82,82,82,,2,1,0.4091738860006444,go,0.10000000000000002,0.776,1.776,025,Scanner,L,1,2019_Sep_02_0932,SST,3.0.7,59.96184219191246,
go,sst_images/Left_Arrow.bmp,None,1,1265,None,0,83,83,83,,1,1,0.427350697980728,go,0.10000000000000002,1.265,2.2649999999999997,025,Scanner,L,1,2019_Sep_02_0932,SST,3.0.7,59.96184219191246,
stop,sst_images/Left_Arrow.bmp,sst_images/Stop_Arrow.bmp,none,710,None,0,84,84,84,,None,1,,stop,0.15000000000000002,0.71,1.7100000000000002,025,Scanner,L,1,2019_Sep_02_0932,SST,3.0.7,59.96184219191246,
go,sst_images/Left_Arrow.bmp,None,1,734,None,0,85,85,85,,1,1,0.4032952099805698,go,0.15000000000000002,0.734,1.734,025,Scanner,L,1,2019_Sep_02_0932,SST,3.0.7,59.96184219191246,
go,sst_images/Right_Arrow.bmp,None,2,1328,None,0,86,86,86,,2,1,0.39144094998482615,go,0.15000000000000002,1.328,2.3280000000000003,025,Scanner,L,1,2019_Sep_02_0932,SST,3.0.7,59.96184219191246,
go,sst_images/Left_Arrow.bmp,None,1,1339,None,0,87,87,87,,1,1,0.3594256929936819,go,0.15000000000000002,1.339,2.339,025,Scanner,L,1,2019_Sep_02_0932,SST,3.0.7,59.96184219191246,
go,sst_images/Right_Arrow.bmp,None,2,820,None,0,88,88,88,,2,1,0.37574435299029574,go,0.15000000000000002,0.82,1.8199999999999998,025,Scanner,L,1,2019_Sep_02_0932,SST,3.0.7,59.96184219191246,
stop,sst_images/Right_Arrow.bmp,sst_images/Stop_Arrow.bmp,none,752,None,0,89,89,89,,2,0,0.42429163900669664,stop,0.10000000000000002,0.752,1.7777083609933035,025,Scanner,L,1,2019_Sep_02_0932,SST,3.0.7,59.96184219191246,
go,sst_images/Left_Arrow.bmp,None,1,727,None,0,90,90,90,,1,1,0.38570242701098323,go,0.10000000000000002,0.727,1.7269999999999999,025,Scanner,L,1,2019_Sep_02_0932,SST,3.0.7,59.96184219191246,
go,sst_images/Right_Arrow.bmp,None,2,715,None,0,91,91,91,,2,1,0.39371066400781274,go,0.10000000000000002,0.715,1.7149999999999999,025,Scanner,L,1,2019_Sep_02_0932,SST,3.0.7,59.96184219191246,
stop,sst_images/Right_Arrow.bmp,sst_images/Stop_Arrow.bmp,none,732,None,0,92,92,92,,None,1,,stop,0.15000000000000002,0.732,1.732,025,Scanner,L,1,2019_Sep_02_0932,SST,3.0.7,59.96184219191246,
go,sst_images/Left_Arrow.bmp,None,1,711,None,0,93,93,93,,1,1,0.35911317000864074,go,0.15000000000000002,0.711,1.7109999999999999,025,Scanner,L,1,2019_Sep_02_0932,SST,3.0.7,59.96184219191246,
go,sst_images/Left_Arrow.bmp,None,1,1015,None,0,94,94,94,,1,1,0.45755956904031336,go,0.15000000000000002,1.015,2.0149999999999997,025,Scanner,L,1,2019_Sep_02_0932,SST,3.0.7,59.96184219191246,
go,sst_images/Left_Arrow.bmp,None,1,1047,None,0,95,95,95,,1,1,0.5079329669824801,go,0.15000000000000002,1.047,2.0469999999999997,025,Scanner,L,1,2019_Sep_02_0932,SST,3.0.7,59.96184219191246,
go,sst_images/Right_Arrow.bmp,None,2,702,None,0,96,96,96,,2,1,0.3711976319900714,go,0.15000000000000002,0.702,1.702,025,Scanner,L,1,2019_Sep_02_0932,SST,3.0.7,59.96184219191246,
stop,sst_images/Left_Arrow.bmp,sst_images/Stop_Arrow.bmp,none,1045,None,0,97,97,97,,1,0,0.3857305839774199,stop,0.10000000000000002,1.045,2.10926941602258,025,Scanner,L,1,2019_Sep_02_0932,SST,3.0.7,59.96184219191246,
go,sst_images/Left_Arrow.bmp,None,1,828,None,0,98,98,98,,1,1,0.4738318989984691,go,0.10000000000000002,0.828,1.8279999999999998,025,Scanner,L,1,2019_Sep_02_0932,SST,3.0.7,59.96184219191246,
stop,sst_images/Left_Arrow.bmp,sst_images/Stop_Arrow.bmp,none,911,None,0,99,99,99,,None,1,,stop,0.15000000000000002,0.911,1.9110000000000003,025,Scanner,L,1,2019_Sep_02_0932,SST,3.0.7,59.96184219191246,
go,sst_images/Right_Arrow.bmp,None,2,1066,None,0,100,100,100,,2,1,0.32636417797766626,go,0.15000000000000002,1.066,2.066,025,Scanner,L,1,2019_Sep_02_0932,SST,3.0.7,59.96184219191246,
go,sst_images/Right_Arrow.bmp,None,2,780,None,0,101,101,101,,2,1,0.42615405400283635,go,0.15000000000000002,0.78,1.78,025,Scanner,L,1,2019_Sep_02_0932,SST,3.0.7,59.96184219191246,
go,sst_images/Left_Arrow.bmp,None,1,842,None,0,102,102,102,,1,1,0.4403921019984409,go,0.15000000000000002,0.842,1.842,025,Scanner,L,1,2019_Sep_02_0932,SST,3.0.7,59.96184219191246,
go,sst_images/Right_Arrow.bmp,None,2,713,None,0,103,103,103,,2,1,0.42473358899587765,go,0.15000000000000002,0.713,1.713,025,Scanner,L,1,2019_Sep_02_0932,SST,3.0.7,59.96184219191246,
go,sst_images/Right_Arrow.bmp,None,2,1053,None,0,104,104,104,,2,1,0.41774395195534453,go,0.15000000000000002,1.053,2.053,025,Scanner,L,1,2019_Sep_02_0932,SST,3.0.7,59.96184219191246,
go,sst_images/Left_Arrow.bmp,None,1,901,None,0,105,105,105,,1,1,0.44086195703130215,go,0.15000000000000002,0.901,1.901,025,Scanner,L,1,2019_Sep_02_0932,SST,3.0.7,59.96184219191246,
stop,sst_images/Right_Arrow.bmp,sst_images/Stop_Arrow.bmp,none,1356,None,0,106,106,106,,2,0,0.36734178801998496,stop,0.10000000000000002,1.356,2.438658211980015,025,Scanner,L,1,2019_Sep_02_0932,SST,3.0.7,59.96184219191246,
go,sst_images/Left_Arrow.bmp,None,1,864,None,0,107,107,107,,1,1,0.3850747300311923,go,0.10000000000000002,0.864,1.8639999999999999,025,Scanner,L,1,2019_Sep_02_0932,SST,3.0.7,59.96184219191246,
go,sst_images/Right_Arrow.bmp,None,2,1111,None,0,108,108,108,,2,1,0.5524994359584525,go,0.10000000000000002,1.111,2.1109999999999998,025,Scanner,L,1,2019_Sep_02_0932,SST,3.0.7,59.96184219191246,
go,sst_images/Right_Arrow.bmp,None,2,774,None,0,109,109,109,,2,1,0.4046490649925545,go,0.10000000000000002,0.774,1.774,025,Scanner,L,1,2019_Sep_02_0932,SST,3.0.7,59.96184219191246,
go,sst_images/Left_Arrow.bmp,None,1,894,None,0,110,110,110,,1,1,0.5029566630255431,go,0.10000000000000002,0.894,1.8940000000000001,025,Scanner,L,1,2019_Sep_02_0932,SST,3.0.7,59.96184219191246,
go,sst_images/Right_Arrow.bmp,None,2,721,None,0,111,111,111,,2,1,0.42025624797679484,go,0.10000000000000002,0.721,1.721,025,Scanner,L,1,2019_Sep_02_0932,SST,3.0.7,59.96184219191246,
go,sst_images/Left_Arrow.bmp,None,1,896,None,0,112,112,112,,1,1,0.4704990899772383,go,0.10000000000000002,0.896,1.896,025,Scanner,L,1,2019_Sep_02_0932,SST,3.0.7,59.96184219191246,
go,sst_images/Right_Arrow.bmp,None,2,768,None,0,113,113,113,,2,1,0.3694177800207399,go,0.10000000000000002,0.768,1.768,025,Scanner,L,1,2019_Sep_02_0932,SST,3.0.7,59.96184219191246,
go,sst_images/Left_Arrow.bmp,None,1,775,None,0,114,114,114,,1,1,0.39080246799858287,go,0.10000000000000002,0.775,1.775,025,Scanner,L,1,2019_Sep_02_0932,SST,3.0.7,59.96184219191246,
stop,sst_images/Left_Arrow.bmp,sst_images/Stop_Arrow.bmp,none,780,None,0,115,115,115,,None,1,,stop,0.15000000000000002,0.78,1.78,025,Scanner,L,1,2019_Sep_02_0932,SST,3.0.7,59.96184219191246,
go,sst_images/Right_Arrow.bmp,None,2,1049,None,0,116,116,116,,2,1,0.3388636129675433,go,0.15000000000000002,1.049,2.049,025,Scanner,L,1,2019_Sep_02_0932,SST,3.0.7,59.96184219191246,
go,sst_images/Left_Arrow.bmp,None,1,714,None,0,117,117,117,,1,1,0.3909971819957718,go,0.15000000000000002,0.714,1.714,025,Scanner,L,1,2019_Sep_02_0932,SST,3.0.7,59.96184219191246,
stop,sst_images/Left_Arrow.bmp,sst_images/Stop_Arrow.bmp,none,929,None,0,118,118,118,,2,0,0.385598812950775,stop,0.10000000000000002,0.929,1.9934011870492252,025,Scanner,L,1,2019_Sep_02_0932,SST,3.0.7,59.96184219191246,
go,sst_images/Right_Arrow.bmp,None,2,780,None,0,119,119,119,,2,1,0.35374837002018467,go,0.10000000000000002,0.78,1.78,025,Scanner,L,1,2019_Sep_02_0932,SST,3.0.7,59.96184219191246,
go,sst_images/Left_Arrow.bmp,None,1,733,None,0,120,120,120,,1,1,0.4531506060156971,go,0.10000000000000002,0.733,1.733,025,Scanner,L,1,2019_Sep_02_0932,SST,3.0.7,59.96184219191246,
go,sst_images/Right_Arrow.bmp,None,2,713,None,0,121,121,121,,2,1,0.4395933519699611,go,0.10000000000000002,0.713,1.713,025,Scanner,L,1,2019_Sep_02_0932,SST,3.0.7,59.96184219191246,
stop,sst_images/Right_Arrow.bmp,sst_images/Stop_Arrow.bmp,none,702,None,0,122,122,122,,None,1,,stop,0.15000000000000002,0.702,1.7020000000000002,025,Scanner,L,1,2019_Sep_02_0932,SST,3.0.7,59.96184219191246,
go,sst_images/Left_Arrow.bmp,None,1,1464,None,0,123,123,123,,1,1,0.4217999249813147,go,0.15000000000000002,1.464,2.464,025,Scanner,L,1,2019_Sep_02_0932,SST,3.0.7,59.96184219191246,
go,sst_images/Right_Arrow.bmp,None,2,1024,None,0,124,124,124,,2,1,0.43848304700804874,go,0.15000000000000002,1.024,2.024,025,Scanner,L,1,2019_Sep_02_0932,SST,3.0.7,59.96184219191246,
go,sst_images/Right_Arrow.bmp,None,2,1010,None,0,125,125,125,,2,1,0.4728038850007579,go,0.15000000000000002,1.01,2.01,025,Scanner,L,1,2019_Sep_02_0932,SST,3.0.7,59.96184219191246,
go,sst_images/Left_Arrow.bmp,None,1,711,None,0,126,126,126,,1,1,0.5042970700305887,go,0.15000000000000002,0.711,1.7109999999999999,025,Scanner,L,1,2019_Sep_02_0932,SST,3.0.7,59.96184219191246,
stop,sst_images/Left_Arrow.bmp,sst_images/Stop_Arrow.bmp,none,1100,None,0,127,127,127,,None,1,,stop,0.2,1.1,2.0999999999999996,025,Scanner,L,1,2019_Sep_02_0932,SST,3.0.7,59.96184219191246,
go,sst_images/Left_Arrow.bmp,None,1,701,None,0,128,128,128,,1,1,0.45531355700222775,go,0.2,0.701,1.701,025,Scanner,L,1,2019_Sep_02_0932,SST,3.0.7,59.96184219191246,
go,sst_images/Left_Arrow.bmp,None,1,740,None,0,129,129,129,,1,1,0.5384830849943683,go,0.2,0.74,1.74,025,Scanner,L,1,2019_Sep_02_0932,SST,3.0.7,59.96184219191246,
go,sst_images/Right_Arrow.bmp,None,2,734,None,0,130,130,130,,2,1,0.5047921750228852,go,0.2,0.734,1.734,025,Scanner,L,1,2019_Sep_02_0932,SST,3.0.7,59.96184219191246,
stop,sst_images/Right_Arrow.bmp,sst_images/Stop_Arrow.bmp,none,702,None,0,131,131,131,,2,0,0.488871035980992,stop,0.15000000000000002,0.702,1.713128964019008,025,Scanner,L,1,2019_Sep_02_0932,SST,3.0.7,59.96184219191246,
go,sst_images/Left_Arrow.bmp,None,1,836,None,0,132,132,132,,1,1,0.4534039589925669,go,0.15000000000000002,0.836,1.8359999999999999,025,Scanner,L,1,2019_Sep_02_0932,SST,3.0.7,59.96184219191246,
go,sst_images/Left_Arrow.bmp,None,1,903,None,0,133,133,133,,1,1,0.43786973296664655,go,0.15000000000000002,0.903,1.903,025,Scanner,L,1,2019_Sep_02_0932,SST,3.0.7,59.96184219191246,
stop,sst_images/Right_Arrow.bmp,sst_images/Stop_Arrow.bmp,none,802,None,0,134,134,134,,None,1,,stop,0.2,0.802,1.8019999999999998,025,Scanner,L,1,2019_Sep_02_0932,SST,3.0.7,59.96184219191246,
go,sst_images/Left_Arrow.bmp,None,1,802,None,0,135,135,135,,1,1,0.5039120580186136,go,0.2,0.802,1.802,025,Scanner,L,1,2019_Sep_02_0932,SST,3.0.7,59.96184219191246,
go,sst_images/Right_Arrow.bmp,None,2,2000,None,0,136,136,136,,2,1,0.6027985929977149,go,0.2,2.0,3.0,025,Scanner,L,1,2019_Sep_02_0932,SST,3.0.7,59.96184219191246,
go,sst_images/Left_Arrow.bmp,None,1,1283,None,0,137,137,137,,1,1,0.6050623470218852,go,0.2,1.283,2.283,025,Scanner,L,1,2019_Sep_02_0932,SST,3.0.7,59.96184219191246,
go,sst_images/Left_Arrow.bmp,None,1,873,None,0,138,138,138,,1,1,0.4877559659653343,go,0.2,0.873,1.873,025,Scanner,L,1,2019_Sep_02_0932,SST,3.0.7,59.96184219191246,
go,sst_images/Right_Arrow.bmp,None,2,737,None,0,139,139,139,,2,1,0.42069755401462317,go,0.2,0.737,1.737,025,Scanner,L,1,2019_Sep_02_0932,SST,3.0.7,59.96184219191246,
go,sst_images/Right_Arrow.bmp,None,2,1154,None,0,140,140,140,,2,1,0.4528523850021884,go,0.2,1.154,2.154,025,Scanner,L,1,2019_Sep_02_0932,SST,3.0.7,59.96184219191246,
go,sst_images/Left_Arrow.bmp,None,1,777,None,0,141,141,141,,1,1,0.5709215989918448,go,0.2,0.777,1.7770000000000001,025,Scanner,L,1,2019_Sep_02_0932,SST,3.0.7,59.96184219191246,
go,sst_images/Right_Arrow.bmp,None,2,718,None,0,142,142,142,,2,1,0.4196855669724755,go,0.2,0.718,1.718,025,Scanner,L,1,2019_Sep_02_0932,SST,3.0.7,59.96184219191246,
go,sst_images/Left_Arrow.bmp,None,1,883,None,0,143,143,143,,1,1,0.4213091880083084,go,0.2,0.883,1.883,025,Scanner,L,1,2019_Sep_02_0932,SST,3.0.7,59.96184219191246,
stop,sst_images/Left_Arrow.bmp,sst_images/Stop_Arrow.bmp,none,729,None,0,144,144,144,,None,1,,stop,0.25,0.729,1.7289999999999999,025,Scanner,L,1,2019_Sep_02_0932,SST,3.0.7,59.96184219191246,
go,sst_images/Left_Arrow.bmp,None,1,762,None,0,145,145,145,,1,1,0.5715438869665377,go,0.25,0.762,1.762,025,Scanner,L,1,2019_Sep_02_0932,SST,3.0.7,59.96184219191246,
go,sst_images/Right_Arrow.bmp,None,2,1265,None,0,146,146,146,,2,1,0.5708091579726897,go,0.25,1.265,2.2649999999999997,025,Scanner,L,1,2019_Sep_02_0932,SST,3.0.7,59.96184219191246,
go,sst_images/Left_Arrow.bmp,None,1,841,None,0,147,147,147,,1,1,0.38821132702287287,go,0.25,0.841,1.841,025,Scanner,L,1,2019_Sep_02_0932,SST,3.0.7,59.96184219191246,
go,sst_images/Right_Arrow.bmp,None,2,969,None,0,148,148,148,,2,1,0.40249339502770454,go,0.25,0.969,1.9689999999999999,025,Scanner,L,1,2019_Sep_02_0932,SST,3.0.7,59.96184219191246,
stop,sst_images/Left_Arrow.bmp,sst_images/Stop_Arrow.bmp,none,713,None,0,149,149,149,,1,0,0.4374510889756493,stop,0.2,0.713,1.8255489110243508,025,Scanner,L,1,2019_Sep_02_0932,SST,3.0.7,59.96184219191246,
go,sst_images/Left_Arrow.bmp,None,1,843,None,0,150,150,150,,1,1,0.43640202400274575,go,0.2,0.843,1.843,025,Scanner,L,1,2019_Sep_02_0932,SST,3.0.7,59.96184219191246,
go,sst_images/Right_Arrow.bmp,None,2,858,None,0,151,151,151,,2,1,0.5365039450116456,go,0.2,0.858,1.858,025,Scanner,L,1,2019_Sep_02_0932,SST,3.0.7,59.96184219191246,
go,sst_images/Right_Arrow.bmp,None,2,786,None,0,152,152,152,,2,1,0.6049962039687671,go,0.2,0.786,1.786,025,Scanner,L,1,2019_Sep_02_0932,SST,3.0.7,59.96184219191246,
go,sst_images/Left_Arrow.bmp,None,1,780,None,0,153,153,153,,1,1,0.538110627036076,go,0.2,0.78,1.78,025,Scanner,L,1,2019_Sep_02_0932,SST,3.0.7,59.96184219191246,
go,sst_images/Right_Arrow.bmp,None,2,771,None,0,154,154,154,,2,1,0.5712530970340595,go,0.2,0.771,1.771,025,Scanner,L,1,2019_Sep_02_0932,SST,3.0.7,59.96184219191246,
stop,sst_images/Left_Arrow.bmp,sst_images/Stop_Arrow.bmp,none,784,None,0,155,155,155,,1,0,0.4042384289787151,stop,0.15000000000000002,0.784,1.879761571021285,025,Scanner,L,1,2019_Sep_02_0932,SST,3.0.7,59.96184219191246,
go,sst_images/Left_Arrow.bmp,None,1,782,None,0,156,156,156,,1,1,0.454485405003652,go,0.15000000000000002,0.782,1.782,025,Scanner,L,1,2019_Sep_02_0932,SST,3.0.7,59.96184219191246,
go,sst_images/Right_Arrow.bmp,None,2,802,None,0,157,157,157,,2,1,0.46897670096950606,go,0.15000000000000002,0.802,1.802,025,Scanner,L,1,2019_Sep_02_0932,SST,3.0.7,59.96184219191246,
go,sst_images/Left_Arrow.bmp,None,1,998,None,0,158,158,158,,1,1,0.5200043139629997,go,0.15000000000000002,0.998,1.998,025,Scanner,L,1,2019_Sep_02_0932,SST,3.0.7,59.96184219191246,
go,sst_images/Right_Arrow.bmp,None,2,905,None,0,159,159,159,,2,1,0.6054436590056866,go,0.15000000000000002,0.905,1.905,025,Scanner,L,1,2019_Sep_02_0932,SST,3.0.7,59.96184219191246,
go,sst_images/Left_Arrow.bmp,None,1,757,None,0,160,160,160,,1,1,0.3862646840279922,go,0.15000000000000002,0.757,1.7570000000000001,025,Scanner,L,1,2019_Sep_02_0932,SST,3.0.7,59.96184219191246,
go,sst_images/Left_Arrow.bmp,None,1,1428,None,0,161,161,161,,1,1,0.48625822295434773,go,0.15000000000000002,1.428,2.428,025,Scanner,L,1,2019_Sep_02_0932,SST,3.0.7,59.96184219191246,
go,sst_images/Right_Arrow.bmp,None,2,975,None,0,162,162,162,,2,1,0.4046815859619528,go,0.15000000000000002,0.975,1.975,025,Scanner,L,1,2019_Sep_02_0932,SST,3.0.7,59.96184219191246,
go,sst_images/Left_Arrow.bmp,None,1,891,None,0,163,163,163,,1,1,0.43563813803484663,go,0.15000000000000002,0.891,1.891,025,Scanner,L,1,2019_Sep_02_0932,SST,3.0.7,59.96184219191246,
go,sst_images/Right_Arrow.bmp,None,2,738,None,0,164,164,164,,2,1,0.40432148094987497,go,0.15000000000000002,0.738,1.738,025,Scanner,L,1,2019_Sep_02_0932,SST,3.0.7,59.96184219191246,
go,sst_images/Right_Arrow.bmp,None,2,911,None,0,165,165,165,,2,1,0.4384630639688112,go,0.15000000000000002,0.911,1.911,025,Scanner,L,1,2019_Sep_02_0932,SST,3.0.7,59.96184219191246,
go,sst_images/Right_Arrow.bmp,None,2,760,None,0,166,166,166,,2,1,0.38720663398271427,go,0.15000000000000002,0.76,1.76,025,Scanner,L,1,2019_Sep_02_0932,SST,3.0.7,59.96184219191246,
stop,sst_images/Right_Arrow.bmp,sst_images/Stop_Arrow.bmp,none,817,None,0,167,167,167,,2,0,0.3696340720052831,stop,0.10000000000000002,0.817,1.897365927994717,025,Scanner,L,1,2019_Sep_02_0932,SST,3.0.7,59.96184219191246,
go,sst_images/Left_Arrow.bmp,None,1,802,None,0,168,168,168,,1,1,0.4713524259859696,go,0.10000000000000002,0.802,1.802,025,Scanner,L,1,2019_Sep_02_0932,SST,3.0.7,59.96184219191246,
go,sst_images/Right_Arrow.bmp,None,2,954,None,0,169,169,169,,2,1,0.40359925996745005,go,0.10000000000000002,0.954,1.954,025,Scanner,L,1,2019_Sep_02_0932,SST,3.0.7,59.96184219191246,
go,sst_images/Right_Arrow.bmp,None,2,1334,None,0,170,170,170,,2,1,0.5197667659958825,go,0.10000000000000002,1.334,2.334,025,Scanner,L,1,2019_Sep_02_0932,SST,3.0.7,59.96184219191246,
go,sst_images/Left_Arrow.bmp,None,1,1171,None,0,171,171,171,,1,1,0.46913843700895086,go,0.10000000000000002,1.171,2.1710000000000003,025,Scanner,L,1,2019_Sep_02_0932,SST,3.0.7,59.96184219191246,
go,sst_images/Right_Arrow.bmp,None,2,972,None,0,172,172,172,,2,1,0.4376253510126844,go,0.10000000000000002,0.972,1.972,025,Scanner,L,1,2019_Sep_02_0932,SST,3.0.7,59.96184219191246,
stop,sst_images/Left_Arrow.bmp,sst_images/Stop_Arrow.bmp,none,711,None,0,173,173,173,,None,1,,stop,0.15000000000000002,0.711,1.711,025,Scanner,L,1,2019_Sep_02_0932,SST,3.0.7,59.96184219191246,
go,sst_images/Right_Arrow.bmp,None,2,1440,None,0,174,174,174,,2,1,0.6042447320069186,go,0.15000000000000002,1.44,2.44,025,Scanner,L,1,2019_Sep_02_0932,SST,3.0.7,59.96184219191246,
go,sst_images/Right_Arrow.bmp,None,2,795,None,0,175,175,175,,2,1,0.4365532210213132,go,0.15000000000000002,0.795,1.795,025,Scanner,L,1,2019_Sep_02_0932,SST,3.0.7,59.96184219191246,
go,sst_images/Left_Arrow.bmp,None,1,845,None,0,176,176,176,,1,1,0.5696716060047038,go,0.15000000000000002,0.845,1.845,025,Scanner,L,1,2019_Sep_02_0932,SST,3.0.7,59.96184219191246,
go,sst_images/Right_Arrow.bmp,None,2,729,None,0,177,177,177,,2,1,0.3684377520112321,go,0.15000000000000002,0.729,1.729,025,Scanner,L,1,2019_Sep_02_0932,SST,3.0.7,59.96184219191246,
go,sst_images/Left_Arrow.bmp,None,1,948,None,0,178,178,178,,1,1,0.4023831870290451,go,0.15000000000000002,0.948,1.948,025,Scanner,L,1,2019_Sep_02_0932,SST,3.0.7,59.96184219191246,
go,sst_images/Right_Arrow.bmp,None,2,834,4232.0,0,179,179,179,,2,1,0.41563647700240836,go,0.15000000000000002,0.834,1.834,025,Scanner,L,1,2019_Sep_02_0932,SST,3.0.7,59.96184219191246,
