trial_type,arrow_1,arrow_2,corrAns,jitter,run_end_fixation,trials.thisRepN,trials.thisTrialN,trials.thisN,trials.thisIndex,randomized TrialOrder,key_response.keys,key_response.corr,key_response.rt,trial_t.routineEndVal,ss_delay,iti_duration,SOA,participant,prac_or_scan,handedness,run,date,expName,psychopyVersion,frameRate,
go,sst_images/Left_Arrow.bmp,None,1,924,None,0,0,0,0,11,1,1,0.6886657860013656,go,0.05,0.924,1.924,026,Scanner,R,1,2019_Aug_30_1218,SST,3.0.7,23.96671493021794,
go,sst_images/Right_Arrow.bmp,None,2,771,None,0,1,1,1,,2,1,0.46113344898913056,go,0.05,0.771,1.771,026,Scanner,R,1,2019_Aug_30_1218,SST,3.0.7,23.96671493021794,
stop,sst_images/Right_Arrow.bmp,sst_images/Stop_Arrow.bmp,none,954,None,0,2,2,2,,None,1,,stop,0.1,0.954,1.954,026,Scanner,R,1,2019_Aug_30_1218,SST,3.0.7,23.96671493021794,
go,sst_images/Right_Arrow.bmp,None,2,902,None,0,3,3,3,,2,1,0.5445822009933181,go,0.1,0.902,1.9020000000000001,026,Scanner,R,1,2019_Aug_30_1218,SST,3.0.7,23.96671493021794,
go,sst_images/Left_Arrow.bmp,None,1,711,None,0,4,4,4,,1,1,0.5062931290012784,go,0.1,0.711,1.7109999999999999,026,Scanner,R,1,2019_Aug_30_1218,SST,3.0.7,23.96671493021794,
stop,sst_images/Left_Arrow.bmp,sst_images/Stop_Arrow.bmp,none,718,None,0,5,5,5,,None,1,,stop,0.15000000000000002,0.718,1.7180000000000002,026,Scanner,R,1,2019_Aug_30_1218,SST,3.0.7,23.96671493021794,
go,sst_images/Left_Arrow.bmp,None,1,875,None,0,6,6,6,,1,1,0.5457054949947633,go,0.15000000000000002,0.875,1.875,026,Scanner,R,1,2019_Aug_30_1218,SST,3.0.7,23.96671493021794,
go,sst_images/Right_Arrow.bmp,None,2,798,None,0,7,7,7,,2,1,0.5047706490149722,go,0.15000000000000002,0.798,1.798,026,Scanner,R,1,2019_Aug_30_1218,SST,3.0.7,23.96671493021794,
go,sst_images/Left_Arrow.bmp,None,1,794,None,0,8,8,8,,1,1,0.5823301229975186,go,0.15000000000000002,0.794,1.794,026,Scanner,R,1,2019_Aug_30_1218,SST,3.0.7,23.96671493021794,
stop,sst_images/Left_Arrow.bmp,sst_images/Stop_Arrow.bmp,none,704,None,0,9,9,9,,None,1,,stop,0.2,0.704,1.704,026,Scanner,R,1,2019_Aug_30_1218,SST,3.0.7,23.96671493021794,
go,sst_images/Right_Arrow.bmp,None,2,731,None,0,10,10,10,,2,1,0.46318169799633324,go,0.2,0.731,1.7309999999999999,026,Scanner,R,1,2019_Aug_30_1218,SST,3.0.7,23.96671493021794,
go,sst_images/Right_Arrow.bmp,None,2,715,None,0,11,11,11,,2,1,0.5051702479831874,go,0.2,0.715,1.7149999999999999,026,Scanner,R,1,2019_Aug_30_1218,SST,3.0.7,23.96671493021794,
stop,sst_images/Right_Arrow.bmp,sst_images/Stop_Arrow.bmp,none,879,None,0,12,12,12,,2,0,0.5152793260058388,stop,0.15000000000000002,0.879,1.8637206739941612,026,Scanner,R,1,2019_Aug_30_1218,SST,3.0.7,23.96671493021794,
go,sst_images/Left_Arrow.bmp,None,1,1153,None,0,13,13,13,,1,1,0.545461528992746,go,0.15000000000000002,1.153,2.153,026,Scanner,R,1,2019_Aug_30_1218,SST,3.0.7,23.96671493021794,
go,sst_images/Right_Arrow.bmp,None,2,1426,None,0,14,14,14,,2,1,0.7515156099689193,go,0.15000000000000002,1.426,2.426,026,Scanner,R,1,2019_Aug_30_1218,SST,3.0.7,23.96671493021794,
go,sst_images/Left_Arrow.bmp,None,1,776,None,0,15,15,15,,1,1,0.629333984979894,go,0.15000000000000002,0.776,1.776,026,Scanner,R,1,2019_Aug_30_1218,SST,3.0.7,23.96671493021794,
go,sst_images/Left_Arrow.bmp,None,1,757,None,0,16,16,16,,1,1,0.585993311018683,go,0.15000000000000002,0.757,1.7570000000000001,026,Scanner,R,1,2019_Aug_30_1218,SST,3.0.7,23.96671493021794,
go,sst_images/Left_Arrow.bmp,None,1,735,None,0,17,17,17,,1,1,0.5862524910480715,go,0.15000000000000002,0.735,1.7349999999999999,026,Scanner,R,1,2019_Aug_30_1218,SST,3.0.7,23.96671493021794,
stop,sst_images/Right_Arrow.bmp,sst_images/Stop_Arrow.bmp,none,855,None,0,18,18,18,,None,1,,stop,0.2,0.855,1.8549999999999998,026,Scanner,R,1,2019_Aug_30_1218,SST,3.0.7,23.96671493021794,
go,sst_images/Right_Arrow.bmp,None,2,787,None,0,19,19,19,,2,1,0.545784490997903,go,0.2,0.787,1.787,026,Scanner,R,1,2019_Aug_30_1218,SST,3.0.7,23.96671493021794,
go,sst_images/Left_Arrow.bmp,None,1,886,None,0,20,20,20,,1,1,0.5862603909918107,go,0.2,0.886,1.8860000000000001,026,Scanner,R,1,2019_Aug_30_1218,SST,3.0.7,23.96671493021794,
go,sst_images/Left_Arrow.bmp,None,1,872,None,0,21,21,21,,1,1,0.5460621219826862,go,0.2,0.872,1.8719999999999999,026,Scanner,R,1,2019_Aug_30_1218,SST,3.0.7,23.96671493021794,
stop,sst_images/Left_Arrow.bmp,sst_images/Stop_Arrow.bmp,none,843,None,0,22,22,22,,None,1,,stop,0.25,0.843,1.843,026,Scanner,R,1,2019_Aug_30_1218,SST,3.0.7,23.96671493021794,
go,sst_images/Right_Arrow.bmp,None,2,717,None,0,23,23,23,,2,1,0.4622499350225553,go,0.25,0.717,1.717,026,Scanner,R,1,2019_Aug_30_1218,SST,3.0.7,23.96671493021794,
go,sst_images/Left_Arrow.bmp,None,1,800,None,0,24,24,24,,None,0,,go,0.25,0.8,1.8,026,Scanner,R,1,2019_Aug_30_1218,SST,3.0.7,23.96671493021794,
go,sst_images/Right_Arrow.bmp,None,2,836,None,0,25,25,25,,2,1,0.49986348301172256,go,0.25,0.836,1.8359999999999999,026,Scanner,R,1,2019_Aug_30_1218,SST,3.0.7,23.96671493021794,
stop,sst_images/Right_Arrow.bmp,sst_images/Stop_Arrow.bmp,none,1015,None,0,26,26,26,,None,1,,stop,0.3,1.015,2.0149999999999997,026,Scanner,R,1,2019_Aug_30_1218,SST,3.0.7,23.96671493021794,
go,sst_images/Left_Arrow.bmp,None,1,718,None,0,27,27,27,,1,1,0.6291152309859172,go,0.3,0.718,1.718,026,Scanner,R,1,2019_Aug_30_1218,SST,3.0.7,23.96671493021794,
go,sst_images/Right_Arrow.bmp,None,2,807,None,0,28,28,28,,2,1,0.5423105509835295,go,0.3,0.807,1.807,026,Scanner,R,1,2019_Aug_30_1218,SST,3.0.7,23.96671493021794,
go,sst_images/Right_Arrow.bmp,None,2,757,None,0,29,29,29,,2,1,0.5851246980018914,go,0.3,0.757,1.7570000000000001,026,Scanner,R,1,2019_Aug_30_1218,SST,3.0.7,23.96671493021794,
go,sst_images/Left_Arrow.bmp,None,1,974,None,0,30,30,30,,1,1,0.671199823031202,go,0.3,0.974,1.974,026,Scanner,R,1,2019_Aug_30_1218,SST,3.0.7,23.96671493021794,
go,sst_images/Right_Arrow.bmp,None,2,1107,None,0,31,31,31,,2,1,0.630930871993769,go,0.3,1.107,2.107,026,Scanner,R,1,2019_Aug_30_1218,SST,3.0.7,23.96671493021794,
go,sst_images/Right_Arrow.bmp,None,2,777,None,0,32,32,32,,2,1,0.543036456045229,go,0.3,0.777,1.7770000000000001,026,Scanner,R,1,2019_Aug_30_1218,SST,3.0.7,23.96671493021794,
stop,sst_images/Right_Arrow.bmp,sst_images/Stop_Arrow.bmp,none,723,None,0,33,33,33,,2,0,0.5841734730056487,stop,0.25,0.723,1.7388265269943513,026,Scanner,R,1,2019_Aug_30_1218,SST,3.0.7,23.96671493021794,
go,sst_images/Left_Arrow.bmp,None,1,963,None,0,34,34,34,,1,1,0.7531942000496201,go,0.25,0.963,1.963,026,Scanner,R,1,2019_Aug_30_1218,SST,3.0.7,23.96671493021794,
go,sst_images/Right_Arrow.bmp,None,2,1186,None,0,35,35,35,,2,1,0.506346456008032,go,0.25,1.186,2.186,026,Scanner,R,1,2019_Aug_30_1218,SST,3.0.7,23.96671493021794,
go,sst_images/Left_Arrow.bmp,None,1,793,None,0,36,36,36,,1,1,0.5861879690201022,go,0.25,0.793,1.7930000000000001,026,Scanner,R,1,2019_Aug_30_1218,SST,3.0.7,23.96671493021794,
go,sst_images/Left_Arrow.bmp,None,1,1207,None,0,37,37,37,,1,1,0.5773909469717182,go,0.25,1.207,2.207,026,Scanner,R,1,2019_Aug_30_1218,SST,3.0.7,23.96671493021794,
go,sst_images/Right_Arrow.bmp,None,2,800,None,0,38,38,38,,2,1,0.7542823310359381,go,0.25,0.8,1.8,026,Scanner,R,1,2019_Aug_30_1218,SST,3.0.7,23.96671493021794,
go,sst_images/Right_Arrow.bmp,None,2,1156,None,0,39,39,39,,2,1,0.5831433699931949,go,0.25,1.156,2.1559999999999997,026,Scanner,R,1,2019_Aug_30_1218,SST,3.0.7,23.96671493021794,
stop,sst_images/Left_Arrow.bmp,sst_images/Stop_Arrow.bmp,none,1032,None,0,40,40,40,,None,1,,stop,0.3,1.032,2.032,026,Scanner,R,1,2019_Aug_30_1218,SST,3.0.7,23.96671493021794,
go,sst_images/Left_Arrow.bmp,None,1,1088,None,0,41,41,41,,1,1,0.5458218679996207,go,0.3,1.088,2.088,026,Scanner,R,1,2019_Aug_30_1218,SST,3.0.7,23.96671493021794,
go,sst_images/Left_Arrow.bmp,None,1,922,None,0,42,42,42,,None,0,,go,0.3,0.922,1.9220000000000002,026,Scanner,R,1,2019_Aug_30_1218,SST,3.0.7,23.96671493021794,
go,sst_images/Right_Arrow.bmp,None,2,733,None,0,43,43,43,,2,1,0.6296469530207105,go,0.3,0.733,1.733,026,Scanner,R,1,2019_Aug_30_1218,SST,3.0.7,23.96671493021794,
stop,sst_images/Right_Arrow.bmp,sst_images/Stop_Arrow.bmp,none,717,None,0,44,44,44,,None,1,,stop,0.35,0.717,1.717,026,Scanner,R,1,2019_Aug_30_1218,SST,3.0.7,23.96671493021794,
go,sst_images/Left_Arrow.bmp,None,1,870,None,0,45,45,45,,1,1,0.5038326040375978,go,0.35,0.87,1.87,026,Scanner,R,1,2019_Aug_30_1218,SST,3.0.7,23.96671493021794,
go,sst_images/Left_Arrow.bmp,None,1,765,None,0,46,46,46,,1,1,0.5063312110141851,go,0.35,0.765,1.7650000000000001,026,Scanner,R,1,2019_Aug_30_1218,SST,3.0.7,23.96671493021794,
go,sst_images/Right_Arrow.bmp,None,2,861,None,0,47,47,47,,2,1,0.7508565280004404,go,0.35,0.861,1.861,026,Scanner,R,1,2019_Aug_30_1218,SST,3.0.7,23.96671493021794,
go,sst_images/Right_Arrow.bmp,None,2,772,None,0,48,48,48,,2,1,0.67443687497871,go,0.35,0.772,1.772,026,Scanner,R,1,2019_Aug_30_1218,SST,3.0.7,23.96671493021794,
go,sst_images/Right_Arrow.bmp,None,2,937,None,0,49,49,49,,2,1,0.5443152879597619,go,0.35,0.937,1.937,026,Scanner,R,1,2019_Aug_30_1218,SST,3.0.7,23.96671493021794,
stop,sst_images/Left_Arrow.bmp,sst_images/Stop_Arrow.bmp,none,1296,None,0,50,50,50,,1,0,0.5680282409884967,stop,0.3,1.296,2.377971759011503,026,Scanner,R,1,2019_Aug_30_1218,SST,3.0.7,23.96671493021794,
go,sst_images/Left_Arrow.bmp,None,1,757,None,0,51,51,51,,1,1,0.6271829039906152,go,0.3,0.757,1.7570000000000001,026,Scanner,R,1,2019_Aug_30_1218,SST,3.0.7,23.96671493021794,
go,sst_images/Left_Arrow.bmp,None,1,751,None,0,52,52,52,,1,1,0.5862890100106597,go,0.3,0.751,1.751,026,Scanner,R,1,2019_Aug_30_1218,SST,3.0.7,23.96671493021794,
go,sst_images/Left_Arrow.bmp,None,1,900,None,0,53,53,53,,1,1,0.5867488939547911,go,0.3,0.9,1.9,026,Scanner,R,1,2019_Aug_30_1218,SST,3.0.7,23.96671493021794,
go,sst_images/Right_Arrow.bmp,None,2,815,None,0,54,54,54,,2,1,0.6299642709782347,go,0.3,0.815,1.815,026,Scanner,R,1,2019_Aug_30_1218,SST,3.0.7,23.96671493021794,
stop,sst_images/Right_Arrow.bmp,sst_images/Stop_Arrow.bmp,none,865,None,0,55,55,55,,None,1,,stop,0.35,0.865,1.865,026,Scanner,R,1,2019_Aug_30_1218,SST,3.0.7,23.96671493021794,
go,sst_images/Right_Arrow.bmp,None,2,701,None,0,56,56,56,,None,0,,go,0.35,0.701,1.701,026,Scanner,R,1,2019_Aug_30_1218,SST,3.0.7,23.96671493021794,
go,sst_images/Left_Arrow.bmp,None,1,963,None,0,57,57,57,,1,1,0.6271014289814048,go,0.35,0.963,1.963,026,Scanner,R,1,2019_Aug_30_1218,SST,3.0.7,23.96671493021794,
go,sst_images/Left_Arrow.bmp,None,1,757,None,0,58,58,58,,1,1,0.7062695049680769,go,0.35,0.757,1.7570000000000001,026,Scanner,R,1,2019_Aug_30_1218,SST,3.0.7,23.96671493021794,
go,sst_images/Left_Arrow.bmp,None,1,799,None,0,59,59,59,,1,1,0.8400888280011714,go,0.35,0.799,1.799,026,Scanner,R,1,2019_Aug_30_1218,SST,3.0.7,23.96671493021794,
go,sst_images/Right_Arrow.bmp,None,2,862,None,0,60,60,60,,2,1,0.794907888979651,go,0.35,0.862,1.862,026,Scanner,R,1,2019_Aug_30_1218,SST,3.0.7,23.96671493021794,
stop,sst_images/Right_Arrow.bmp,sst_images/Stop_Arrow.bmp,none,1102,None,0,61,61,61,,None,1,,stop,0.39999999999999997,1.102,2.102,026,Scanner,R,1,2019_Aug_30_1218,SST,3.0.7,23.96671493021794,
go,sst_images/Left_Arrow.bmp,None,1,704,None,0,62,62,62,,1,1,0.49924402800388634,go,0.39999999999999997,0.704,1.704,026,Scanner,R,1,2019_Aug_30_1218,SST,3.0.7,23.96671493021794,
go,sst_images/Left_Arrow.bmp,None,1,928,None,0,63,63,63,,1,1,0.7151154679595493,go,0.39999999999999997,0.928,1.928,026,Scanner,R,1,2019_Aug_30_1218,SST,3.0.7,23.96671493021794,
go,sst_images/Right_Arrow.bmp,None,2,1164,None,0,64,64,64,,None,0,,go,0.39999999999999997,1.164,2.1639999999999997,026,Scanner,R,1,2019_Aug_30_1218,SST,3.0.7,23.96671493021794,
go,sst_images/Right_Arrow.bmp,None,2,746,None,0,65,65,65,,None,0,,go,0.39999999999999997,0.746,1.746,026,Scanner,R,1,2019_Aug_30_1218,SST,3.0.7,23.96671493021794,
go,sst_images/Left_Arrow.bmp,None,1,1003,None,0,66,66,66,,None,0,,go,0.39999999999999997,1.003,2.003,026,Scanner,R,1,2019_Aug_30_1218,SST,3.0.7,23.96671493021794,
stop,sst_images/Left_Arrow.bmp,sst_images/Stop_Arrow.bmp,none,918,None,0,67,67,67,,None,1,,stop,0.44999999999999996,0.918,1.918,026,Scanner,R,1,2019_Aug_30_1218,SST,3.0.7,23.96671493021794,
go,sst_images/Right_Arrow.bmp,None,2,1036,None,0,68,68,68,,2,1,0.544902126013767,go,0.44999999999999996,1.036,2.036,026,Scanner,R,1,2019_Aug_30_1218,SST,3.0.7,23.96671493021794,
go,sst_images/Left_Arrow.bmp,None,1,1122,None,0,69,69,69,,1,1,0.8344662549789064,go,0.44999999999999996,1.122,2.122,026,Scanner,R,1,2019_Aug_30_1218,SST,3.0.7,23.96671493021794,
go,sst_images/Right_Arrow.bmp,None,2,1296,None,0,70,70,70,,2,1,0.7553427490056492,go,0.44999999999999996,1.296,2.2960000000000003,026,Scanner,R,1,2019_Aug_30_1218,SST,3.0.7,23.96671493021794,
go,sst_images/Right_Arrow.bmp,None,2,1072,None,0,71,71,71,,2,1,0.7974170109955594,go,0.44999999999999996,1.072,2.072,026,Scanner,R,1,2019_Aug_30_1218,SST,3.0.7,23.96671493021794,
go,sst_images/Left_Arrow.bmp,None,1,844,None,0,72,72,72,,1,1,0.8752237389562652,go,0.44999999999999996,0.844,1.8439999999999999,026,Scanner,R,1,2019_Aug_30_1218,SST,3.0.7,23.96671493021794,
go,sst_images/Right_Arrow.bmp,None,2,935,None,0,73,73,73,,2,1,0.8332147760083899,go,0.44999999999999996,0.935,1.935,026,Scanner,R,1,2019_Aug_30_1218,SST,3.0.7,23.96671493021794,
go,sst_images/Left_Arrow.bmp,None,1,1079,None,0,74,74,74,,1,1,0.7533396179787815,go,0.44999999999999996,1.079,2.0789999999999997,026,Scanner,R,1,2019_Aug_30_1218,SST,3.0.7,23.96671493021794,
go,sst_images/Right_Arrow.bmp,None,2,1187,None,0,75,75,75,,2,1,0.667448122985661,go,0.44999999999999996,1.187,2.1870000000000003,026,Scanner,R,1,2019_Aug_30_1218,SST,3.0.7,23.96671493021794,
go,sst_images/Left_Arrow.bmp,None,1,1200,None,0,76,76,76,,1,1,0.5855216369964182,go,0.44999999999999996,1.2,2.2,026,Scanner,R,1,2019_Aug_30_1218,SST,3.0.7,23.96671493021794,
go,sst_images/Right_Arrow.bmp,None,2,746,None,0,77,77,77,,2,1,0.6289383600233123,go,0.44999999999999996,0.746,1.746,026,Scanner,R,1,2019_Aug_30_1218,SST,3.0.7,23.96671493021794,
go,sst_images/Right_Arrow.bmp,None,2,892,None,0,78,78,78,,2,1,0.5447842820431106,go,0.44999999999999996,0.892,1.892,026,Scanner,R,1,2019_Aug_30_1218,SST,3.0.7,23.96671493021794,
go,sst_images/Left_Arrow.bmp,None,1,858,None,0,79,79,79,,1,1,0.5453582800109871,go,0.44999999999999996,0.858,1.858,026,Scanner,R,1,2019_Aug_30_1218,SST,3.0.7,23.96671493021794,
stop,sst_images/Right_Arrow.bmp,sst_images/Stop_Arrow.bmp,none,895,None,0,80,80,80,,2,0,0.45847098698141053,stop,0.39999999999999997,0.895,2.1865290130185895,026,Scanner,R,1,2019_Aug_30_1218,SST,3.0.7,23.96671493021794,
go,sst_images/Left_Arrow.bmp,None,1,740,None,0,81,81,81,,1,1,0.5852112960419618,go,0.39999999999999997,0.74,1.74,026,Scanner,R,1,2019_Aug_30_1218,SST,3.0.7,23.96671493021794,
go,sst_images/Right_Arrow.bmp,None,2,935,None,0,82,82,82,,2,1,0.6699899490340613,go,0.39999999999999997,0.935,1.935,026,Scanner,R,1,2019_Aug_30_1218,SST,3.0.7,23.96671493021794,
go,sst_images/Right_Arrow.bmp,None,2,1335,None,0,83,83,83,,2,1,0.5448864629724994,go,0.39999999999999997,1.335,2.335,026,Scanner,R,1,2019_Aug_30_1218,SST,3.0.7,23.96671493021794,
go,sst_images/Right_Arrow.bmp,None,2,919,None,0,84,84,84,,2,1,0.41998099198099226,go,0.39999999999999997,0.919,1.919,026,Scanner,R,1,2019_Aug_30_1218,SST,3.0.7,23.96671493021794,
go,sst_images/Left_Arrow.bmp,None,1,800,None,0,85,85,85,,1,1,0.5380822260049172,go,0.39999999999999997,0.8,1.8,026,Scanner,R,1,2019_Aug_30_1218,SST,3.0.7,23.96671493021794,
stop,sst_images/Right_Arrow.bmp,sst_images/Stop_Arrow.bmp,none,734,None,0,86,86,86,,2,0,0.6636880969745107,stop,0.35,0.734,1.7703119030254892,026,Scanner,R,1,2019_Aug_30_1218,SST,3.0.7,23.96671493021794,
go,sst_images/Left_Arrow.bmp,None,1,714,None,0,87,87,87,,1,1,0.8780137849971652,go,0.35,0.714,1.714,026,Scanner,R,1,2019_Aug_30_1218,SST,3.0.7,23.96671493021794,
go,sst_images/Right_Arrow.bmp,None,2,977,None,0,88,88,88,,2,1,0.7096827729837969,go,0.35,0.977,1.9769999999999999,026,Scanner,R,1,2019_Aug_30_1218,SST,3.0.7,23.96671493021794,
go,sst_images/Left_Arrow.bmp,None,1,753,None,0,89,89,89,,1,1,0.4479051480302587,go,0.35,0.753,1.7530000000000001,026,Scanner,R,1,2019_Aug_30_1218,SST,3.0.7,23.96671493021794,
go,sst_images/Right_Arrow.bmp,None,2,964,None,0,90,90,90,,2,1,0.46271721803350374,go,0.35,0.964,1.964,026,Scanner,R,1,2019_Aug_30_1218,SST,3.0.7,23.96671493021794,
go,sst_images/Left_Arrow.bmp,None,1,1308,None,0,91,91,91,,1,1,0.5041153189959005,go,0.35,1.308,2.308,026,Scanner,R,1,2019_Aug_30_1218,SST,3.0.7,23.96671493021794,
go,sst_images/Right_Arrow.bmp,None,2,812,None,0,92,92,92,,2,1,0.704246315988712,go,0.35,0.812,1.812,026,Scanner,R,1,2019_Aug_30_1218,SST,3.0.7,23.96671493021794,
go,sst_images/Left_Arrow.bmp,None,1,731,None,0,93,93,93,,1,1,0.7145246330182999,go,0.35,0.731,1.7309999999999999,026,Scanner,R,1,2019_Aug_30_1218,SST,3.0.7,23.96671493021794,
go,sst_images/Left_Arrow.bmp,None,1,740,None,0,94,94,94,,1,1,0.7541717680287547,go,0.35,0.74,1.74,026,Scanner,R,1,2019_Aug_30_1218,SST,3.0.7,23.96671493021794,
go,sst_images/Left_Arrow.bmp,None,1,979,None,0,95,95,95,,1,1,0.9524371160077862,go,0.35,0.979,1.979,026,Scanner,R,1,2019_Aug_30_1218,SST,3.0.7,23.96671493021794,
go,sst_images/Right_Arrow.bmp,None,2,916,None,0,96,96,96,,2,1,0.7963291289634071,go,0.35,0.916,1.916,026,Scanner,R,1,2019_Aug_30_1218,SST,3.0.7,23.96671493021794,
go,sst_images/Left_Arrow.bmp,None,1,1015,None,0,97,97,97,,1,1,0.7537630409933627,go,0.35,1.015,2.0149999999999997,026,Scanner,R,1,2019_Aug_30_1218,SST,3.0.7,23.96671493021794,
go,sst_images/Right_Arrow.bmp,None,2,855,None,0,98,98,98,,2,1,0.7546660490334034,go,0.35,0.855,1.855,026,Scanner,R,1,2019_Aug_30_1218,SST,3.0.7,23.96671493021794,
go,sst_images/Right_Arrow.bmp,None,2,802,None,0,99,99,99,,2,1,0.9175370589946397,go,0.35,0.802,1.802,026,Scanner,R,1,2019_Aug_30_1218,SST,3.0.7,23.96671493021794,
go,sst_images/Left_Arrow.bmp,None,1,798,None,0,100,100,100,,1,1,0.8788706240011379,go,0.35,0.798,1.798,026,Scanner,R,1,2019_Aug_30_1218,SST,3.0.7,23.96671493021794,
go,sst_images/Right_Arrow.bmp,None,2,961,None,0,101,101,101,,2,1,0.7570292960153893,go,0.35,0.961,1.9609999999999999,026,Scanner,R,1,2019_Aug_30_1218,SST,3.0.7,23.96671493021794,
stop,sst_images/Left_Arrow.bmp,sst_images/Stop_Arrow.bmp,none,753,None,0,102,102,102,,1,0,0.6660416430095211,stop,0.3,0.753,1.7369583569904792,026,Scanner,R,1,2019_Aug_30_1218,SST,3.0.7,23.96671493021794,
go,sst_images/Right_Arrow.bmp,None,2,1378,None,0,103,103,103,,2,1,0.662636061955709,go,0.3,1.378,2.378,026,Scanner,R,1,2019_Aug_30_1218,SST,3.0.7,23.96671493021794,
go,sst_images/Left_Arrow.bmp,None,1,723,None,0,104,104,104,,1,1,0.48992653499590233,go,0.3,0.723,1.7229999999999999,026,Scanner,R,1,2019_Aug_30_1218,SST,3.0.7,23.96671493021794,
stop,sst_images/Left_Arrow.bmp,sst_images/Stop_Arrow.bmp,none,701,None,0,105,105,105,,None,1,,stop,0.35,0.701,1.701,026,Scanner,R,1,2019_Aug_30_1218,SST,3.0.7,23.96671493021794,
go,sst_images/Left_Arrow.bmp,None,1,1378,None,0,106,106,106,,1,1,0.5877281260327436,go,0.35,1.378,2.378,026,Scanner,R,1,2019_Aug_30_1218,SST,3.0.7,23.96671493021794,
go,sst_images/Right_Arrow.bmp,None,2,1670,None,0,107,107,107,,2,1,0.6694117580191232,go,0.35,1.67,2.67,026,Scanner,R,1,2019_Aug_30_1218,SST,3.0.7,23.96671493021794,
go,sst_images/Right_Arrow.bmp,None,2,836,None,0,108,108,108,,2,1,0.9223660160205327,go,0.35,0.836,1.8359999999999999,026,Scanner,R,1,2019_Aug_30_1218,SST,3.0.7,23.96671493021794,
go,sst_images/Left_Arrow.bmp,None,1,809,None,0,109,109,109,,1,1,0.8813221340533346,go,0.35,0.809,1.8090000000000002,026,Scanner,R,1,2019_Aug_30_1218,SST,3.0.7,23.96671493021794,
go,sst_images/Right_Arrow.bmp,None,2,828,None,0,110,110,110,,None,0,,go,0.35,0.828,1.8279999999999998,026,Scanner,R,1,2019_Aug_30_1218,SST,3.0.7,23.96671493021794,
go,sst_images/Left_Arrow.bmp,None,1,825,None,0,111,111,111,,1,1,0.9192174090421759,go,0.35,0.825,1.825,026,Scanner,R,1,2019_Aug_30_1218,SST,3.0.7,23.96671493021794,
go,sst_images/Right_Arrow.bmp,None,2,735,None,0,112,112,112,,2,1,0.5064387369784527,go,0.35,0.735,1.7349999999999999,026,Scanner,R,1,2019_Aug_30_1218,SST,3.0.7,23.96671493021794,
stop,sst_images/Right_Arrow.bmp,sst_images/Stop_Arrow.bmp,none,721,None,0,113,113,113,,None,1,,stop,0.39999999999999997,0.721,1.7209999999999999,026,Scanner,R,1,2019_Aug_30_1218,SST,3.0.7,23.96671493021794,
go,sst_images/Left_Arrow.bmp,None,1,853,None,0,114,114,114,,1,1,0.6698529089917429,go,0.39999999999999997,0.853,1.853,026,Scanner,R,1,2019_Aug_30_1218,SST,3.0.7,23.96671493021794,
go,sst_images/Right_Arrow.bmp,None,2,869,None,0,115,115,115,,2,1,0.8806305230245925,go,0.39999999999999997,0.869,1.869,026,Scanner,R,1,2019_Aug_30_1218,SST,3.0.7,23.96671493021794,
stop,sst_images/Left_Arrow.bmp,sst_images/Stop_Arrow.bmp,none,1088,None,0,116,116,116,,1,0,0.7287731190444902,stop,0.35,1.088,2.0592268809555097,026,Scanner,R,1,2019_Aug_30_1218,SST,3.0.7,23.96671493021794,
go,sst_images/Left_Arrow.bmp,None,1,767,None,0,117,117,117,,None,0,,go,0.35,0.767,1.767,026,Scanner,R,1,2019_Aug_30_1218,SST,3.0.7,23.96671493021794,
go,sst_images/Right_Arrow.bmp,None,2,724,None,0,118,118,118,,2,1,0.6254523459938355,go,0.35,0.724,1.724,026,Scanner,R,1,2019_Aug_30_1218,SST,3.0.7,23.96671493021794,
go,sst_images/Left_Arrow.bmp,None,1,1377,None,0,119,119,119,,1,1,0.7139539519557729,go,0.35,1.377,2.377,026,Scanner,R,1,2019_Aug_30_1218,SST,3.0.7,23.96671493021794,
go,sst_images/Right_Arrow.bmp,None,2,817,None,0,120,120,120,,None,0,,go,0.35,0.817,1.817,026,Scanner,R,1,2019_Aug_30_1218,SST,3.0.7,23.96671493021794,
stop,sst_images/Left_Arrow.bmp,sst_images/Stop_Arrow.bmp,none,1335,None,0,121,121,121,,None,1,,stop,0.39999999999999997,1.335,2.335,026,Scanner,R,1,2019_Aug_30_1218,SST,3.0.7,23.96671493021794,
go,sst_images/Left_Arrow.bmp,None,1,1260,None,0,122,122,122,,1,1,0.6719077750458382,go,0.39999999999999997,1.26,2.26,026,Scanner,R,1,2019_Aug_30_1218,SST,3.0.7,23.96671493021794,
go,sst_images/Right_Arrow.bmp,None,2,935,None,0,123,123,123,,2,1,0.4641887709731236,go,0.39999999999999997,0.935,1.935,026,Scanner,R,1,2019_Aug_30_1218,SST,3.0.7,23.96671493021794,
go,sst_images/Right_Arrow.bmp,None,2,989,None,0,124,124,124,,2,1,0.5836823930148967,go,0.39999999999999997,0.989,1.9889999999999999,026,Scanner,R,1,2019_Aug_30_1218,SST,3.0.7,23.96671493021794,
go,sst_images/Left_Arrow.bmp,None,1,853,None,0,125,125,125,,1,1,0.5431124099995941,go,0.39999999999999997,0.853,1.853,026,Scanner,R,1,2019_Aug_30_1218,SST,3.0.7,23.96671493021794,
stop,sst_images/Right_Arrow.bmp,sst_images/Stop_Arrow.bmp,none,763,None,0,126,126,126,,2,0,0.7346453100326471,stop,0.35,0.763,1.7283546899673528,026,Scanner,R,1,2019_Aug_30_1218,SST,3.0.7,23.96671493021794,
go,sst_images/Left_Arrow.bmp,None,1,798,None,0,127,127,127,,None,0,,go,0.35,0.798,1.798,026,Scanner,R,1,2019_Aug_30_1218,SST,3.0.7,23.96671493021794,
go,sst_images/Left_Arrow.bmp,None,1,719,None,0,128,128,128,,1,1,0.7508784970268607,go,0.35,0.719,1.7189999999999999,026,Scanner,R,1,2019_Aug_30_1218,SST,3.0.7,23.96671493021794,
go,sst_images/Right_Arrow.bmp,None,2,763,None,0,129,129,129,,2,1,0.8352190459845588,go,0.35,0.763,1.763,026,Scanner,R,1,2019_Aug_30_1218,SST,3.0.7,23.96671493021794,
go,sst_images/Left_Arrow.bmp,None,1,807,None,0,130,130,130,,1,1,0.6689355249982327,go,0.35,0.807,1.807,026,Scanner,R,1,2019_Aug_30_1218,SST,3.0.7,23.96671493021794,
go,sst_images/Left_Arrow.bmp,None,1,787,None,0,131,131,131,,1,1,0.7530088390340097,go,0.35,0.787,1.787,026,Scanner,R,1,2019_Aug_30_1218,SST,3.0.7,23.96671493021794,
go,sst_images/Left_Arrow.bmp,None,1,998,None,0,132,132,132,,1,1,0.6282928470172919,go,0.35,0.998,1.998,026,Scanner,R,1,2019_Aug_30_1218,SST,3.0.7,23.96671493021794,
stop,sst_images/Left_Arrow.bmp,sst_images/Stop_Arrow.bmp,none,821,None,0,133,133,133,,1,0,0.5702588800340891,stop,0.3,0.821,1.9007411199659108,026,Scanner,R,1,2019_Aug_30_1218,SST,3.0.7,23.96671493021794,
go,sst_images/Right_Arrow.bmp,None,2,828,None,0,134,134,134,,None,0,,go,0.3,0.828,1.8279999999999998,026,Scanner,R,1,2019_Aug_30_1218,SST,3.0.7,23.96671493021794,
go,sst_images/Left_Arrow.bmp,None,1,1151,None,0,135,135,135,,1,1,0.6237657369929366,go,0.3,1.151,2.151,026,Scanner,R,1,2019_Aug_30_1218,SST,3.0.7,23.96671493021794,
go,sst_images/Left_Arrow.bmp,None,1,1240,None,0,136,136,136,,1,1,0.7555122309713624,go,0.3,1.24,2.24,026,Scanner,R,1,2019_Aug_30_1218,SST,3.0.7,23.96671493021794,
stop,sst_images/Right_Arrow.bmp,sst_images/Stop_Arrow.bmp,none,755,None,0,137,137,137,,2,0,0.4989106289576739,stop,0.25,0.755,1.856089371042326,026,Scanner,R,1,2019_Aug_30_1218,SST,3.0.7,23.96671493021794,
go,sst_images/Right_Arrow.bmp,None,2,756,None,0,138,138,138,,2,1,0.8308600910240784,go,0.25,0.756,1.756,026,Scanner,R,1,2019_Aug_30_1218,SST,3.0.7,23.96671493021794,
go,sst_images/Right_Arrow.bmp,None,2,717,None,0,139,139,139,,2,1,0.5829362160293385,go,0.25,0.717,1.717,026,Scanner,R,1,2019_Aug_30_1218,SST,3.0.7,23.96671493021794,
go,sst_images/Left_Arrow.bmp,None,1,768,None,0,140,140,140,,1,1,0.5038122039986774,go,0.25,0.768,1.768,026,Scanner,R,1,2019_Aug_30_1218,SST,3.0.7,23.96671493021794,
stop,sst_images/Right_Arrow.bmp,sst_images/Stop_Arrow.bmp,none,845,None,0,141,141,141,,2,0,0.567396109981928,stop,0.2,0.845,1.827603890018072,026,Scanner,R,1,2019_Aug_30_1218,SST,3.0.7,23.96671493021794,
go,sst_images/Right_Arrow.bmp,None,2,802,None,0,142,142,142,,2,1,0.5878437089850195,go,0.2,0.802,1.802,026,Scanner,R,1,2019_Aug_30_1218,SST,3.0.7,23.96671493021794,
go,sst_images/Left_Arrow.bmp,None,1,755,None,0,143,143,143,,1,1,0.7100615220260806,go,0.2,0.755,1.755,026,Scanner,R,1,2019_Aug_30_1218,SST,3.0.7,23.96671493021794,
stop,sst_images/Left_Arrow.bmp,sst_images/Stop_Arrow.bmp,none,928,None,0,144,144,144,,None,1,,stop,0.25,0.928,1.928,026,Scanner,R,1,2019_Aug_30_1218,SST,3.0.7,23.96671493021794,
go,sst_images/Left_Arrow.bmp,None,1,918,None,0,145,145,145,,1,1,0.5456341999815777,go,0.25,0.918,1.9180000000000001,026,Scanner,R,1,2019_Aug_30_1218,SST,3.0.7,23.96671493021794,
go,sst_images/Right_Arrow.bmp,None,2,806,None,0,146,146,146,,2,1,0.7938567550154403,go,0.25,0.806,1.806,026,Scanner,R,1,2019_Aug_30_1218,SST,3.0.7,23.96671493021794,
stop,sst_images/Left_Arrow.bmp,sst_images/Stop_Arrow.bmp,none,935,None,0,147,147,147,,None,1,,stop,0.3,0.935,1.935,026,Scanner,R,1,2019_Aug_30_1218,SST,3.0.7,23.96671493021794,
go,sst_images/Left_Arrow.bmp,None,1,733,None,0,148,148,148,,1,1,0.7128238499863073,go,0.3,0.733,1.733,026,Scanner,R,1,2019_Aug_30_1218,SST,3.0.7,23.96671493021794,
go,sst_images/Right_Arrow.bmp,None,2,866,None,0,149,149,149,,2,1,0.5441112439730205,go,0.3,0.866,1.866,026,Scanner,R,1,2019_Aug_30_1218,SST,3.0.7,23.96671493021794,
go,sst_images/Left_Arrow.bmp,None,1,799,None,0,150,150,150,,1,1,0.583022085018456,go,0.3,0.799,1.799,026,Scanner,R,1,2019_Aug_30_1218,SST,3.0.7,23.96671493021794,
go,sst_images/Right_Arrow.bmp,None,2,777,None,0,151,151,151,,2,1,0.6716474490240216,go,0.3,0.777,1.7770000000000001,026,Scanner,R,1,2019_Aug_30_1218,SST,3.0.7,23.96671493021794,
go,sst_images/Right_Arrow.bmp,None,2,757,None,0,152,152,152,,2,1,0.878733403980732,go,0.3,0.757,1.7570000000000001,026,Scanner,R,1,2019_Aug_30_1218,SST,3.0.7,23.96671493021794,
go,sst_images/Left_Arrow.bmp,None,1,821,None,0,153,153,153,,1,1,0.8328061699867249,go,0.3,0.821,1.821,026,Scanner,R,1,2019_Aug_30_1218,SST,3.0.7,23.96671493021794,
stop,sst_images/Left_Arrow.bmp,sst_images/Stop_Arrow.bmp,none,875,None,0,154,154,154,,None,1,,stop,0.35,0.875,1.875,026,Scanner,R,1,2019_Aug_30_1218,SST,3.0.7,23.96671493021794,
go,sst_images/Right_Arrow.bmp,None,2,798,None,0,155,155,155,,2,1,0.4608158440096304,go,0.35,0.798,1.798,026,Scanner,R,1,2019_Aug_30_1218,SST,3.0.7,23.96671493021794,
go,sst_images/Left_Arrow.bmp,None,1,766,None,0,156,156,156,,1,1,0.8817710480070673,go,0.35,0.766,1.766,026,Scanner,R,1,2019_Aug_30_1218,SST,3.0.7,23.96671493021794,
go,sst_images/Right_Arrow.bmp,None,2,1905,None,0,157,157,157,,2,1,0.7950143269845285,go,0.35,1.905,2.9050000000000002,026,Scanner,R,1,2019_Aug_30_1218,SST,3.0.7,23.96671493021794,
go,sst_images/Left_Arrow.bmp,None,1,1028,None,0,158,158,158,,1,1,0.7934867840376683,go,0.35,1.028,2.028,026,Scanner,R,1,2019_Aug_30_1218,SST,3.0.7,23.96671493021794,
go,sst_images/Right_Arrow.bmp,None,2,1093,None,0,159,159,159,,2,1,0.6684477190137841,go,0.35,1.093,2.093,026,Scanner,R,1,2019_Aug_30_1218,SST,3.0.7,23.96671493021794,
go,sst_images/Left_Arrow.bmp,None,1,718,None,0,160,160,160,,1,1,0.7963386009796523,go,0.35,0.718,1.718,026,Scanner,R,1,2019_Aug_30_1218,SST,3.0.7,23.96671493021794,
go,sst_images/Left_Arrow.bmp,None,1,934,None,0,161,161,161,,1,1,0.7118061159853823,go,0.35,0.934,1.9340000000000002,026,Scanner,R,1,2019_Aug_30_1218,SST,3.0.7,23.96671493021794,
go,sst_images/Right_Arrow.bmp,None,2,926,None,0,162,162,162,,2,1,0.7579121959861368,go,0.35,0.926,1.9260000000000002,026,Scanner,R,1,2019_Aug_30_1218,SST,3.0.7,23.96671493021794,
go,sst_images/Left_Arrow.bmp,None,1,802,None,0,163,163,163,,1,1,0.8806598200462759,go,0.35,0.802,1.802,026,Scanner,R,1,2019_Aug_30_1218,SST,3.0.7,23.96671493021794,
stop,sst_images/Right_Arrow.bmp,sst_images/Stop_Arrow.bmp,none,763,None,0,164,164,164,,None,1,,stop,0.39999999999999997,0.763,1.7630000000000001,026,Scanner,R,1,2019_Aug_30_1218,SST,3.0.7,23.96671493021794,
go,sst_images/Right_Arrow.bmp,None,2,730,None,0,165,165,165,,2,1,0.7544594269711524,go,0.39999999999999997,0.73,1.73,026,Scanner,R,1,2019_Aug_30_1218,SST,3.0.7,23.96671493021794,
go,sst_images/Right_Arrow.bmp,None,2,773,None,0,166,166,166,,2,1,0.9181367399869487,go,0.39999999999999997,0.773,1.7730000000000001,026,Scanner,R,1,2019_Aug_30_1218,SST,3.0.7,23.96671493021794,
go,sst_images/Right_Arrow.bmp,None,2,727,None,0,167,167,167,,None,0,,go,0.39999999999999997,0.727,1.7269999999999999,026,Scanner,R,1,2019_Aug_30_1218,SST,3.0.7,23.96671493021794,
go,sst_images/Left_Arrow.bmp,None,1,879,None,0,168,168,168,,1,1,0.7554963200236671,go,0.39999999999999997,0.879,1.879,026,Scanner,R,1,2019_Aug_30_1218,SST,3.0.7,23.96671493021794,
go,sst_images/Right_Arrow.bmp,None,2,762,None,0,169,169,169,,2,1,0.5018301599775441,go,0.39999999999999997,0.762,1.762,026,Scanner,R,1,2019_Aug_30_1218,SST,3.0.7,23.96671493021794,
go,sst_images/Right_Arrow.bmp,None,2,727,None,0,170,170,170,,2,1,0.6241956070298329,go,0.39999999999999997,0.727,1.7269999999999999,026,Scanner,R,1,2019_Aug_30_1218,SST,3.0.7,23.96671493021794,
stop,sst_images/Left_Arrow.bmp,sst_images/Stop_Arrow.bmp,none,1240,None,0,171,171,171,,1,0,0.6203576870029792,stop,0.35,1.24,2.3196423129970207,026,Scanner,R,1,2019_Aug_30_1218,SST,3.0.7,23.96671493021794,
go,sst_images/Left_Arrow.bmp,None,1,954,None,0,172,172,172,,1,1,0.6228944450267591,go,0.35,0.954,1.954,026,Scanner,R,1,2019_Aug_30_1218,SST,3.0.7,23.96671493021794,
go,sst_images/Right_Arrow.bmp,None,2,779,None,0,173,173,173,,2,1,0.8796258199727163,go,0.35,0.779,1.779,026,Scanner,R,1,2019_Aug_30_1218,SST,3.0.7,23.96671493021794,
go,sst_images/Right_Arrow.bmp,None,2,870,None,0,174,174,174,,2,1,0.7129840860143304,go,0.35,0.87,1.87,026,Scanner,R,1,2019_Aug_30_1218,SST,3.0.7,23.96671493021794,
go,sst_images/Right_Arrow.bmp,None,2,978,None,0,175,175,175,,2,1,0.8810088540194556,go,0.35,0.978,1.978,026,Scanner,R,1,2019_Aug_30_1218,SST,3.0.7,23.96671493021794,
go,sst_images/Left_Arrow.bmp,None,1,859,None,0,176,176,176,,1,1,0.5439499639905989,go,0.35,0.859,1.859,026,Scanner,R,1,2019_Aug_30_1218,SST,3.0.7,23.96671493021794,
go,sst_images/Right_Arrow.bmp,None,2,728,None,0,177,177,177,,2,1,0.6280384630081244,go,0.35,0.728,1.728,026,Scanner,R,1,2019_Aug_30_1218,SST,3.0.7,23.96671493021794,
go,sst_images/Left_Arrow.bmp,None,1,800,None,0,178,178,178,,1,1,0.7095151910325512,go,0.35,0.8,1.8,026,Scanner,R,1,2019_Aug_30_1218,SST,3.0.7,23.96671493021794,
go,sst_images/Right_Arrow.bmp,None,2,721,5648.0,0,179,179,179,,2,1,0.6721460070111789,go,0.35,0.721,1.721,026,Scanner,R,1,2019_Aug_30_1218,SST,3.0.7,23.96671493021794,
