trial_type,arrow_1,arrow_2,corrAns,jitter,run_end_fixation,trials.thisRepN,trials.thisTrialN,trials.thisN,trials.thisIndex,randomized TrialOrder,key_response.keys,key_response.corr,key_response.rt,trial_t.routineEndVal,ss_delay,iti_duration,SOA,participant,prac_or_scan,handedness,run,date,expName,psychopyVersion,frameRate,
go,sst_images/Left_Arrow.bmp,None,1,1057,None,0,0,0,0,11,1,1,0.8127640620223247,go,0.05,1.057,2.057,026,Scanner,R,2,2019_Aug_30_1225,SST,3.0.7,23.99105521299528,
go,sst_images/Right_Arrow.bmp,None,2,761,None,0,1,1,1,,2,1,0.5045846739667468,go,0.05,0.761,1.7610000000000001,026,Scanner,R,2,2019_Aug_30_1225,SST,3.0.7,23.99105521299528,
go,sst_images/Right_Arrow.bmp,None,2,1025,None,0,2,2,2,,2,1,0.541012450994458,go,0.05,1.025,2.025,026,Scanner,R,2,2019_Aug_30_1225,SST,3.0.7,23.99105521299528,
go,sst_images/Left_Arrow.bmp,None,1,745,None,0,3,3,3,,1,1,0.6681299490155652,go,0.05,0.745,1.745,026,Scanner,R,2,2019_Aug_30_1225,SST,3.0.7,23.99105521299528,
go,sst_images/Left_Arrow.bmp,None,1,1362,None,0,4,4,4,,1,1,0.5420318440301344,go,0.05,1.362,2.362,026,Scanner,R,2,2019_Aug_30_1225,SST,3.0.7,23.99105521299528,
go,sst_images/Right_Arrow.bmp,None,2,804,None,0,5,5,5,,2,1,0.5432852059602737,go,0.05,0.804,1.804,026,Scanner,R,2,2019_Aug_30_1225,SST,3.0.7,23.99105521299528,
go,sst_images/Left_Arrow.bmp,None,1,821,None,0,6,6,6,,1,1,0.7094934009946883,go,0.05,0.821,1.821,026,Scanner,R,2,2019_Aug_30_1225,SST,3.0.7,23.99105521299528,
stop,sst_images/Right_Arrow.bmp,sst_images/Stop_Arrow.bmp,none,1001,None,0,7,7,7,,None,1,,stop,0.1,1.001,2.001,026,Scanner,R,2,2019_Aug_30_1225,SST,3.0.7,23.99105521299528,
go,sst_images/Right_Arrow.bmp,None,2,1025,None,0,8,8,8,,2,1,0.5845186660299078,go,0.1,1.025,2.025,026,Scanner,R,2,2019_Aug_30_1225,SST,3.0.7,23.99105521299528,
go,sst_images/Right_Arrow.bmp,None,2,832,None,0,9,9,9,,2,1,0.710679433948826,go,0.1,0.832,1.8319999999999999,026,Scanner,R,2,2019_Aug_30_1225,SST,3.0.7,23.99105521299528,
go,sst_images/Left_Arrow.bmp,None,1,773,None,0,10,10,10,,1,1,0.5848732789745554,go,0.1,0.773,1.7730000000000001,026,Scanner,R,2,2019_Aug_30_1225,SST,3.0.7,23.99105521299528,
go,sst_images/Right_Arrow.bmp,None,2,1479,None,0,11,11,11,,2,1,0.5009404600132257,go,0.1,1.479,2.479,026,Scanner,R,2,2019_Aug_30_1225,SST,3.0.7,23.99105521299528,
go,sst_images/Left_Arrow.bmp,None,1,801,None,0,12,12,12,,1,1,0.7937661160249263,go,0.1,0.801,1.8010000000000002,026,Scanner,R,2,2019_Aug_30_1225,SST,3.0.7,23.99105521299528,
go,sst_images/Left_Arrow.bmp,None,1,789,None,0,13,13,13,,1,1,0.7522108010016382,go,0.1,0.789,1.7890000000000001,026,Scanner,R,2,2019_Aug_30_1225,SST,3.0.7,23.99105521299528,
go,sst_images/Left_Arrow.bmp,None,1,766,None,0,14,14,14,,1,1,0.7560603480087593,go,0.1,0.766,1.766,026,Scanner,R,2,2019_Aug_30_1225,SST,3.0.7,23.99105521299528,
go,sst_images/Right_Arrow.bmp,None,2,891,None,0,15,15,15,,2,1,0.7111663990071975,go,0.1,0.891,1.891,026,Scanner,R,2,2019_Aug_30_1225,SST,3.0.7,23.99105521299528,
go,sst_images/Left_Arrow.bmp,None,1,868,None,0,16,16,16,,1,1,0.7531422559986822,go,0.1,0.868,1.8679999999999999,026,Scanner,R,2,2019_Aug_30_1225,SST,3.0.7,23.99105521299528,
go,sst_images/Left_Arrow.bmp,None,1,1445,None,0,17,17,17,,1,1,0.7407690259860829,go,0.1,1.445,2.4450000000000003,026,Scanner,R,2,2019_Aug_30_1225,SST,3.0.7,23.99105521299528,
go,sst_images/Right_Arrow.bmp,None,2,1033,None,0,18,18,18,,2,1,0.7963117139879614,go,0.1,1.033,2.033,026,Scanner,R,2,2019_Aug_30_1225,SST,3.0.7,23.99105521299528,
go,sst_images/Left_Arrow.bmp,None,1,1103,None,0,19,19,19,,1,1,0.5854778829962015,go,0.1,1.103,2.1029999999999998,026,Scanner,R,2,2019_Aug_30_1225,SST,3.0.7,23.99105521299528,
go,sst_images/Right_Arrow.bmp,None,2,808,None,0,20,20,20,,2,1,0.7515060090227053,go,0.1,0.808,1.808,026,Scanner,R,2,2019_Aug_30_1225,SST,3.0.7,23.99105521299528,
go,sst_images/Left_Arrow.bmp,None,1,1401,None,0,21,21,21,,1,1,0.6946891410043463,go,0.1,1.401,2.401,026,Scanner,R,2,2019_Aug_30_1225,SST,3.0.7,23.99105521299528,
go,sst_images/Right_Arrow.bmp,None,2,834,None,0,22,22,22,,2,1,0.7547986350255087,go,0.1,0.834,1.834,026,Scanner,R,2,2019_Aug_30_1225,SST,3.0.7,23.99105521299528,
go,sst_images/Right_Arrow.bmp,None,2,1551,None,0,23,23,23,,2,1,0.754361881990917,go,0.1,1.551,2.551,026,Scanner,R,2,2019_Aug_30_1225,SST,3.0.7,23.99105521299528,
go,sst_images/Left_Arrow.bmp,None,1,770,None,0,24,24,24,,1,1,0.669909002026543,go,0.1,0.77,1.77,026,Scanner,R,2,2019_Aug_30_1225,SST,3.0.7,23.99105521299528,
stop,sst_images/Left_Arrow.bmp,sst_images/Stop_Arrow.bmp,none,801,None,0,25,25,25,,None,1,,stop,0.15000000000000002,0.801,1.8010000000000002,026,Scanner,R,2,2019_Aug_30_1225,SST,3.0.7,23.99105521299528,
go,sst_images/Right_Arrow.bmp,None,2,810,None,0,26,26,26,,2,1,0.5035643519950099,go,0.15000000000000002,0.81,1.81,026,Scanner,R,2,2019_Aug_30_1225,SST,3.0.7,23.99105521299528,
go,sst_images/Right_Arrow.bmp,None,2,783,None,0,27,27,27,,2,1,0.795675398025196,go,0.15000000000000002,0.783,1.783,026,Scanner,R,2,2019_Aug_30_1225,SST,3.0.7,23.99105521299528,
go,sst_images/Left_Arrow.bmp,None,1,1008,None,0,28,28,28,,1,1,0.9211773379938677,go,0.15000000000000002,1.008,2.008,026,Scanner,R,2,2019_Aug_30_1225,SST,3.0.7,23.99105521299528,
stop,sst_images/Left_Arrow.bmp,sst_images/Stop_Arrow.bmp,none,725,None,0,29,29,29,,None,1,,stop,0.2,0.725,1.7249999999999999,026,Scanner,R,2,2019_Aug_30_1225,SST,3.0.7,23.99105521299528,
go,sst_images/Right_Arrow.bmp,None,2,737,None,0,30,30,30,,2,1,0.46296780998818576,go,0.2,0.737,1.737,026,Scanner,R,2,2019_Aug_30_1225,SST,3.0.7,23.99105521299528,
go,sst_images/Left_Arrow.bmp,None,1,826,None,0,31,31,31,,1,1,0.5453795759822242,go,0.2,0.826,1.826,026,Scanner,R,2,2019_Aug_30_1225,SST,3.0.7,23.99105521299528,
stop,sst_images/Right_Arrow.bmp,sst_images/Stop_Arrow.bmp,none,717,None,0,32,32,32,,2,0,0.5603478230186738,stop,0.15000000000000002,0.717,1.6566521769813263,026,Scanner,R,2,2019_Aug_30_1225,SST,3.0.7,23.99105521299528,
go,sst_images/Left_Arrow.bmp,None,1,812,None,0,33,33,33,,1,1,0.5040499420138076,go,0.15000000000000002,0.812,1.812,026,Scanner,R,2,2019_Aug_30_1225,SST,3.0.7,23.99105521299528,
go,sst_images/Right_Arrow.bmp,None,2,768,None,0,34,34,34,,2,1,0.5441148430109024,go,0.15000000000000002,0.768,1.768,026,Scanner,R,2,2019_Aug_30_1225,SST,3.0.7,23.99105521299528,
go,sst_images/Right_Arrow.bmp,None,2,957,None,0,35,35,35,,2,1,0.5823995639802888,go,0.15000000000000002,0.957,1.9569999999999999,026,Scanner,R,2,2019_Aug_30_1225,SST,3.0.7,23.99105521299528,
go,sst_images/Left_Arrow.bmp,None,1,812,None,0,36,36,36,,1,1,0.5439672369975597,go,0.15000000000000002,0.812,1.812,026,Scanner,R,2,2019_Aug_30_1225,SST,3.0.7,23.99105521299528,
stop,sst_images/Right_Arrow.bmp,sst_images/Stop_Arrow.bmp,none,727,None,0,37,37,37,,2,0,0.5019312929944135,stop,0.10000000000000002,0.727,1.6750687070055863,026,Scanner,R,2,2019_Aug_30_1225,SST,3.0.7,23.99105521299528,
go,sst_images/Left_Arrow.bmp,None,1,818,None,0,38,38,38,,1,1,0.5415929779992439,go,0.10000000000000002,0.818,1.818,026,Scanner,R,2,2019_Aug_30_1225,SST,3.0.7,23.99105521299528,
go,sst_images/Right_Arrow.bmp,None,2,746,None,0,39,39,39,,2,1,0.6718102170270868,go,0.10000000000000002,0.746,1.746,026,Scanner,R,2,2019_Aug_30_1225,SST,3.0.7,23.99105521299528,
go,sst_images/Left_Arrow.bmp,None,1,834,None,0,40,40,40,,1,1,0.583738835004624,go,0.10000000000000002,0.834,1.834,026,Scanner,R,2,2019_Aug_30_1225,SST,3.0.7,23.99105521299528,
go,sst_images/Left_Arrow.bmp,None,1,1211,None,0,41,41,41,,1,1,0.920878064003773,go,0.10000000000000002,1.211,2.2110000000000003,026,Scanner,R,2,2019_Aug_30_1225,SST,3.0.7,23.99105521299528,
stop,sst_images/Left_Arrow.bmp,sst_images/Stop_Arrow.bmp,none,811,None,0,42,42,42,,None,1,,stop,0.15000000000000002,0.811,1.8110000000000002,026,Scanner,R,2,2019_Aug_30_1225,SST,3.0.7,23.99105521299528,
go,sst_images/Right_Arrow.bmp,None,2,776,None,0,43,43,43,,2,1,0.5462756420020014,go,0.15000000000000002,0.776,1.776,026,Scanner,R,2,2019_Aug_30_1225,SST,3.0.7,23.99105521299528,
go,sst_images/Right_Arrow.bmp,None,2,962,None,0,44,44,44,,2,1,0.5861646010307595,go,0.15000000000000002,0.962,1.962,026,Scanner,R,2,2019_Aug_30_1225,SST,3.0.7,23.99105521299528,
go,sst_images/Right_Arrow.bmp,None,2,871,None,0,45,45,45,,2,1,0.7056380650028586,go,0.15000000000000002,0.871,1.871,026,Scanner,R,2,2019_Aug_30_1225,SST,3.0.7,23.99105521299528,
go,sst_images/Left_Arrow.bmp,None,1,820,None,0,46,46,46,,1,1,0.7526251000235789,go,0.15000000000000002,0.82,1.8199999999999998,026,Scanner,R,2,2019_Aug_30_1225,SST,3.0.7,23.99105521299528,
go,sst_images/Left_Arrow.bmp,None,1,706,None,0,47,47,47,,1,1,0.7545883639832027,go,0.15000000000000002,0.706,1.706,026,Scanner,R,2,2019_Aug_30_1225,SST,3.0.7,23.99105521299528,
go,sst_images/Left_Arrow.bmp,None,1,970,None,0,48,48,48,,1,1,0.6685777889797464,go,0.15000000000000002,0.97,1.97,026,Scanner,R,2,2019_Aug_30_1225,SST,3.0.7,23.99105521299528,
go,sst_images/Right_Arrow.bmp,None,2,1184,None,0,49,49,49,,2,1,0.7146078810328618,go,0.15000000000000002,1.184,2.184,026,Scanner,R,2,2019_Aug_30_1225,SST,3.0.7,23.99105521299528,
go,sst_images/Right_Arrow.bmp,None,2,731,None,0,50,50,50,,2,1,0.7918830600101501,go,0.15000000000000002,0.731,1.7309999999999999,026,Scanner,R,2,2019_Aug_30_1225,SST,3.0.7,23.99105521299528,
go,sst_images/Left_Arrow.bmp,None,1,715,None,0,51,51,51,,1,1,0.7936155070201494,go,0.15000000000000002,0.715,1.7149999999999999,026,Scanner,R,2,2019_Aug_30_1225,SST,3.0.7,23.99105521299528,
go,sst_images/Left_Arrow.bmp,None,1,748,None,0,52,52,52,,None,0,,go,0.15000000000000002,0.748,1.748,026,Scanner,R,2,2019_Aug_30_1225,SST,3.0.7,23.99105521299528,
stop,sst_images/Right_Arrow.bmp,sst_images/Stop_Arrow.bmp,none,808,None,0,53,53,53,,None,1,,stop,0.2,0.808,1.808,026,Scanner,R,2,2019_Aug_30_1225,SST,3.0.7,23.99105521299528,
go,sst_images/Left_Arrow.bmp,None,1,765,None,0,54,54,54,,1,1,0.7996992149855942,go,0.2,0.765,1.7650000000000001,026,Scanner,R,2,2019_Aug_30_1225,SST,3.0.7,23.99105521299528,
go,sst_images/Right_Arrow.bmp,None,2,871,None,0,55,55,55,,2,1,0.7072226239833981,go,0.2,0.871,1.871,026,Scanner,R,2,2019_Aug_30_1225,SST,3.0.7,23.99105521299528,
go,sst_images/Left_Arrow.bmp,None,1,730,None,0,56,56,56,,1,1,0.8362292789970525,go,0.2,0.73,1.73,026,Scanner,R,2,2019_Aug_30_1225,SST,3.0.7,23.99105521299528,
stop,sst_images/Right_Arrow.bmp,sst_images/Stop_Arrow.bmp,none,766,None,0,57,57,57,,None,1,,stop,0.25,0.766,1.766,026,Scanner,R,2,2019_Aug_30_1225,SST,3.0.7,23.99105521299528,
go,sst_images/Left_Arrow.bmp,None,1,839,None,0,58,58,58,,1,1,0.6294165860163048,go,0.25,0.839,1.839,026,Scanner,R,2,2019_Aug_30_1225,SST,3.0.7,23.99105521299528,
go,sst_images/Right_Arrow.bmp,None,2,842,None,0,59,59,59,,2,1,0.7106397660099901,go,0.25,0.842,1.842,026,Scanner,R,2,2019_Aug_30_1225,SST,3.0.7,23.99105521299528,
go,sst_images/Right_Arrow.bmp,None,2,721,None,0,60,60,60,,2,1,0.8341703949845396,go,0.25,0.721,1.721,026,Scanner,R,2,2019_Aug_30_1225,SST,3.0.7,23.99105521299528,
stop,sst_images/Left_Arrow.bmp,sst_images/Stop_Arrow.bmp,none,746,None,0,61,61,61,,1,0,0.5647551579750143,stop,0.2,0.746,1.7312448420249857,026,Scanner,R,2,2019_Aug_30_1225,SST,3.0.7,23.99105521299528,
go,sst_images/Left_Arrow.bmp,None,1,710,None,0,62,62,62,,1,1,0.7506445790058933,go,0.2,0.71,1.71,026,Scanner,R,2,2019_Aug_30_1225,SST,3.0.7,23.99105521299528,
go,sst_images/Right_Arrow.bmp,None,2,864,None,0,63,63,63,,2,1,0.9217797690071166,go,0.2,0.864,1.8639999999999999,026,Scanner,R,2,2019_Aug_30_1225,SST,3.0.7,23.99105521299528,
go,sst_images/Left_Arrow.bmp,None,1,804,None,0,64,64,64,,1,1,0.5863549140049145,go,0.2,0.804,1.804,026,Scanner,R,2,2019_Aug_30_1225,SST,3.0.7,23.99105521299528,
stop,sst_images/Right_Arrow.bmp,sst_images/Stop_Arrow.bmp,none,1179,None,0,65,65,65,,None,1,,stop,0.25,1.179,2.179,026,Scanner,R,2,2019_Aug_30_1225,SST,3.0.7,23.99105521299528,
go,sst_images/Right_Arrow.bmp,None,2,713,None,0,66,66,66,,2,1,0.7113184090121649,go,0.25,0.713,1.713,026,Scanner,R,2,2019_Aug_30_1225,SST,3.0.7,23.99105521299528,
go,sst_images/Right_Arrow.bmp,None,2,842,None,0,67,67,67,,2,1,0.754502864961978,go,0.25,0.842,1.842,026,Scanner,R,2,2019_Aug_30_1225,SST,3.0.7,23.99105521299528,
go,sst_images/Left_Arrow.bmp,None,1,738,None,0,68,68,68,,1,1,0.5895913580316119,go,0.25,0.738,1.738,026,Scanner,R,2,2019_Aug_30_1225,SST,3.0.7,23.99105521299528,
go,sst_images/Right_Arrow.bmp,None,2,765,None,0,69,69,69,,2,1,0.5030130579834804,go,0.25,0.765,1.7650000000000001,026,Scanner,R,2,2019_Aug_30_1225,SST,3.0.7,23.99105521299528,
stop,sst_images/Left_Arrow.bmp,sst_images/Stop_Arrow.bmp,none,1224,None,0,70,70,70,,None,1,,stop,0.3,1.224,2.2239999999999998,026,Scanner,R,2,2019_Aug_30_1225,SST,3.0.7,23.99105521299528,
go,sst_images/Left_Arrow.bmp,None,1,1160,None,0,71,71,71,,2,0,0.7031343209673651,go,0.3,1.16,2.16,026,Scanner,R,2,2019_Aug_30_1225,SST,3.0.7,23.99105521299528,
go,sst_images/Right_Arrow.bmp,None,2,715,None,0,72,72,72,,2,1,0.710299803991802,go,0.3,0.715,1.7149999999999999,026,Scanner,R,2,2019_Aug_30_1225,SST,3.0.7,23.99105521299528,
go,sst_images/Left_Arrow.bmp,None,1,1355,None,0,73,73,73,,1,1,0.7462636260315776,go,0.3,1.355,2.355,026,Scanner,R,2,2019_Aug_30_1225,SST,3.0.7,23.99105521299528,
go,sst_images/Right_Arrow.bmp,None,2,708,None,0,74,74,74,,2,1,0.5440598129644059,go,0.3,0.708,1.708,026,Scanner,R,2,2019_Aug_30_1225,SST,3.0.7,23.99105521299528,
stop,sst_images/Right_Arrow.bmp,sst_images/Stop_Arrow.bmp,none,789,None,0,75,75,75,,None,1,,stop,0.35,0.789,1.7890000000000001,026,Scanner,R,2,2019_Aug_30_1225,SST,3.0.7,23.99105521299528,
go,sst_images/Right_Arrow.bmp,None,2,972,None,0,76,76,76,,2,1,0.5704632650013082,go,0.35,0.972,1.972,026,Scanner,R,2,2019_Aug_30_1225,SST,3.0.7,23.99105521299528,
go,sst_images/Left_Arrow.bmp,None,1,988,None,0,77,77,77,,1,1,0.581530018011108,go,0.35,0.988,1.988,026,Scanner,R,2,2019_Aug_30_1225,SST,3.0.7,23.99105521299528,
go,sst_images/Left_Arrow.bmp,None,1,1016,None,0,78,78,78,,1,1,0.5884507040027529,go,0.35,1.016,2.016,026,Scanner,R,2,2019_Aug_30_1225,SST,3.0.7,23.99105521299528,
go,sst_images/Right_Arrow.bmp,None,2,817,None,0,79,79,79,,2,1,0.7545123420422897,go,0.35,0.817,1.817,026,Scanner,R,2,2019_Aug_30_1225,SST,3.0.7,23.99105521299528,
go,sst_images/Right_Arrow.bmp,None,2,1079,None,0,80,80,80,,2,1,0.6702942170086317,go,0.35,1.079,2.0789999999999997,026,Scanner,R,2,2019_Aug_30_1225,SST,3.0.7,23.99105521299528,
stop,sst_images/Right_Arrow.bmp,sst_images/Stop_Arrow.bmp,none,1042,None,0,81,81,81,,None,1,,stop,0.39999999999999997,1.042,2.042,026,Scanner,R,2,2019_Aug_30_1225,SST,3.0.7,23.99105521299528,
go,sst_images/Right_Arrow.bmp,None,2,1224,None,0,82,82,82,,2,1,0.5869585000327788,go,0.39999999999999997,1.224,2.224,026,Scanner,R,2,2019_Aug_30_1225,SST,3.0.7,23.99105521299528,
go,sst_images/Left_Arrow.bmp,None,1,1139,None,0,83,83,83,,1,1,0.7090214939671569,go,0.39999999999999997,1.139,2.1390000000000002,026,Scanner,R,2,2019_Aug_30_1225,SST,3.0.7,23.99105521299528,
go,sst_images/Left_Arrow.bmp,None,1,830,None,0,84,84,84,,1,1,0.7530905560124665,go,0.39999999999999997,0.83,1.83,026,Scanner,R,2,2019_Aug_30_1225,SST,3.0.7,23.99105521299528,
go,sst_images/Right_Arrow.bmp,None,2,736,None,0,85,85,85,,2,1,0.794422397040762,go,0.39999999999999997,0.736,1.736,026,Scanner,R,2,2019_Aug_30_1225,SST,3.0.7,23.99105521299528,
go,sst_images/Left_Arrow.bmp,None,1,877,None,0,86,86,86,,1,1,0.8388180210022256,go,0.39999999999999997,0.877,1.877,026,Scanner,R,2,2019_Aug_30_1225,SST,3.0.7,23.99105521299528,
go,sst_images/Right_Arrow.bmp,None,2,737,None,0,87,87,87,,2,1,0.7119452030165121,go,0.39999999999999997,0.737,1.737,026,Scanner,R,2,2019_Aug_30_1225,SST,3.0.7,23.99105521299528,
stop,sst_images/Left_Arrow.bmp,sst_images/Stop_Arrow.bmp,none,900,None,0,88,88,88,,1,0,0.7369136140332557,stop,0.35,0.9,1.8630863859667441,026,Scanner,R,2,2019_Aug_30_1225,SST,3.0.7,23.99105521299528,
go,sst_images/Left_Arrow.bmp,None,1,1427,None,0,89,89,89,,1,1,0.751255993032828,go,0.35,1.427,2.427,026,Scanner,R,2,2019_Aug_30_1225,SST,3.0.7,23.99105521299528,
go,sst_images/Right_Arrow.bmp,None,2,807,None,0,90,90,90,,2,1,0.6719473730190657,go,0.35,0.807,1.807,026,Scanner,R,2,2019_Aug_30_1225,SST,3.0.7,23.99105521299528,
go,sst_images/Left_Arrow.bmp,None,1,864,None,0,91,91,91,,1,1,0.6723358579911292,go,0.35,0.864,1.8639999999999999,026,Scanner,R,2,2019_Aug_30_1225,SST,3.0.7,23.99105521299528,
go,sst_images/Left_Arrow.bmp,None,1,751,None,0,92,92,92,,1,1,0.8388122160104103,go,0.35,0.751,1.751,026,Scanner,R,2,2019_Aug_30_1225,SST,3.0.7,23.99105521299528,
stop,sst_images/Right_Arrow.bmp,sst_images/Stop_Arrow.bmp,none,781,None,0,93,93,93,,None,1,,stop,0.39999999999999997,0.781,1.781,026,Scanner,R,2,2019_Aug_30_1225,SST,3.0.7,23.99105521299528,
go,sst_images/Left_Arrow.bmp,None,1,759,None,0,94,94,94,,1,1,0.7536950930370949,go,0.39999999999999997,0.759,1.759,026,Scanner,R,2,2019_Aug_30_1225,SST,3.0.7,23.99105521299528,
go,sst_images/Right_Arrow.bmp,None,2,885,None,0,95,95,95,,2,1,0.6710641559911892,go,0.39999999999999997,0.885,1.885,026,Scanner,R,2,2019_Aug_30_1225,SST,3.0.7,23.99105521299528,
go,sst_images/Left_Arrow.bmp,None,1,941,None,0,96,96,96,,1,1,0.7543917949660681,go,0.39999999999999997,0.941,1.9409999999999998,026,Scanner,R,2,2019_Aug_30_1225,SST,3.0.7,23.99105521299528,
go,sst_images/Right_Arrow.bmp,None,2,1090,None,0,97,97,97,,2,1,0.5456740779918619,go,0.39999999999999997,1.09,2.09,026,Scanner,R,2,2019_Aug_30_1225,SST,3.0.7,23.99105521299528,
go,sst_images/Right_Arrow.bmp,None,2,948,None,0,98,98,98,,None,0,,go,0.39999999999999997,0.948,1.948,026,Scanner,R,2,2019_Aug_30_1225,SST,3.0.7,23.99105521299528,
go,sst_images/Left_Arrow.bmp,None,1,856,None,0,99,99,99,,1,1,0.8364066709764302,go,0.39999999999999997,0.856,1.8559999999999999,026,Scanner,R,2,2019_Aug_30_1225,SST,3.0.7,23.99105521299528,
go,sst_images/Right_Arrow.bmp,None,2,957,None,0,100,100,100,,2,1,0.7156339579960331,go,0.39999999999999997,0.957,1.9569999999999999,026,Scanner,R,2,2019_Aug_30_1225,SST,3.0.7,23.99105521299528,
go,sst_images/Right_Arrow.bmp,None,2,1100,None,0,101,101,101,,2,1,0.7519567270064726,go,0.39999999999999997,1.1,2.1,026,Scanner,R,2,2019_Aug_30_1225,SST,3.0.7,23.99105521299528,
go,sst_images/Left_Arrow.bmp,None,1,799,None,0,102,102,102,,1,1,0.7089367950102314,go,0.39999999999999997,0.799,1.799,026,Scanner,R,2,2019_Aug_30_1225,SST,3.0.7,23.99105521299528,
go,sst_images/Left_Arrow.bmp,None,1,842,None,0,103,103,103,,1,1,0.5435839089914225,go,0.39999999999999997,0.842,1.842,026,Scanner,R,2,2019_Aug_30_1225,SST,3.0.7,23.99105521299528,
stop,sst_images/Right_Arrow.bmp,sst_images/Stop_Arrow.bmp,none,904,None,0,104,104,104,,2,0,0.708616447984241,stop,0.35,0.904,1.895383552015759,026,Scanner,R,2,2019_Aug_30_1225,SST,3.0.7,23.99105521299528,
go,sst_images/Right_Arrow.bmp,None,2,900,None,0,105,105,105,,2,1,0.7132975159911439,go,0.35,0.9,1.9,026,Scanner,R,2,2019_Aug_30_1225,SST,3.0.7,23.99105521299528,
go,sst_images/Right_Arrow.bmp,None,2,798,None,0,106,106,106,,2,1,0.546323768037837,go,0.35,0.798,1.798,026,Scanner,R,2,2019_Aug_30_1225,SST,3.0.7,23.99105521299528,
go,sst_images/Left_Arrow.bmp,None,1,1028,None,0,107,107,107,,1,1,0.5452099080430344,go,0.35,1.028,2.028,026,Scanner,R,2,2019_Aug_30_1225,SST,3.0.7,23.99105521299528,
go,sst_images/Right_Arrow.bmp,None,2,1006,None,0,108,108,108,,2,1,0.7086606349912472,go,0.35,1.006,2.0060000000000002,026,Scanner,R,2,2019_Aug_30_1225,SST,3.0.7,23.99105521299528,
go,sst_images/Left_Arrow.bmp,None,1,881,None,0,109,109,109,,1,1,0.8785747259971686,go,0.35,0.881,1.881,026,Scanner,R,2,2019_Aug_30_1225,SST,3.0.7,23.99105521299528,
go,sst_images/Right_Arrow.bmp,None,2,774,None,0,110,110,110,,None,0,,go,0.35,0.774,1.774,026,Scanner,R,2,2019_Aug_30_1225,SST,3.0.7,23.99105521299528,
go,sst_images/Left_Arrow.bmp,None,1,827,None,0,111,111,111,,None,0,,go,0.35,0.827,1.827,026,Scanner,R,2,2019_Aug_30_1225,SST,3.0.7,23.99105521299528,
go,sst_images/Right_Arrow.bmp,None,2,746,None,0,112,112,112,,2,1,0.8766603859839961,go,0.35,0.746,1.746,026,Scanner,R,2,2019_Aug_30_1225,SST,3.0.7,23.99105521299528,
stop,sst_images/Left_Arrow.bmp,sst_images/Stop_Arrow.bmp,none,768,None,0,113,113,113,,None,1,,stop,0.39999999999999997,0.768,1.768,026,Scanner,R,2,2019_Aug_30_1225,SST,3.0.7,23.99105521299528,
go,sst_images/Left_Arrow.bmp,None,1,745,None,0,114,114,114,,1,1,0.7073085010051727,go,0.39999999999999997,0.745,1.745,026,Scanner,R,2,2019_Aug_30_1225,SST,3.0.7,23.99105521299528,
go,sst_images/Right_Arrow.bmp,None,2,1831,None,0,115,115,115,,2,1,0.6963256160379387,go,0.39999999999999997,1.831,2.831,026,Scanner,R,2,2019_Aug_30_1225,SST,3.0.7,23.99105521299528,
go,sst_images/Left_Arrow.bmp,None,1,981,None,0,116,116,116,,1,1,0.71205332595855,go,0.39999999999999997,0.981,1.9809999999999999,026,Scanner,R,2,2019_Aug_30_1225,SST,3.0.7,23.99105521299528,
go,sst_images/Right_Arrow.bmp,None,2,778,None,0,117,117,117,,2,1,0.8330517809954472,go,0.39999999999999997,0.778,1.778,026,Scanner,R,2,2019_Aug_30_1225,SST,3.0.7,23.99105521299528,
go,sst_images/Left_Arrow.bmp,None,1,1337,None,0,118,118,118,,1,1,0.7547624239814468,go,0.39999999999999997,1.337,2.3369999999999997,026,Scanner,R,2,2019_Aug_30_1225,SST,3.0.7,23.99105521299528,
stop,sst_images/Left_Arrow.bmp,sst_images/Stop_Arrow.bmp,none,861,None,0,119,119,119,,1,0,0.6506107929744758,stop,0.35,0.861,1.9103892070255242,026,Scanner,R,2,2019_Aug_30_1225,SST,3.0.7,23.99105521299528,
go,sst_images/Right_Arrow.bmp,None,2,988,None,0,120,120,120,,None,0,,go,0.35,0.988,1.988,026,Scanner,R,2,2019_Aug_30_1225,SST,3.0.7,23.99105521299528,
go,sst_images/Right_Arrow.bmp,None,2,757,None,0,121,121,121,,2,1,0.6282290000235662,go,0.35,0.757,1.7570000000000001,026,Scanner,R,2,2019_Aug_30_1225,SST,3.0.7,23.99105521299528,
stop,sst_images/Right_Arrow.bmp,sst_images/Stop_Arrow.bmp,none,842,None,0,122,122,122,,2,0,0.5725598410353996,stop,0.3,0.842,1.9194401589646006,026,Scanner,R,2,2019_Aug_30_1225,SST,3.0.7,23.99105521299528,
go,sst_images/Left_Arrow.bmp,None,1,730,None,0,123,123,123,,None,0,,go,0.3,0.73,1.73,026,Scanner,R,2,2019_Aug_30_1225,SST,3.0.7,23.99105521299528,
go,sst_images/Left_Arrow.bmp,None,1,747,None,0,124,124,124,,1,1,0.6271179749746807,go,0.3,0.747,1.7469999999999999,026,Scanner,R,2,2019_Aug_30_1225,SST,3.0.7,23.99105521299528,
go,sst_images/Left_Arrow.bmp,None,1,948,None,0,125,125,125,,1,1,0.546301446040161,go,0.3,0.948,1.948,026,Scanner,R,2,2019_Aug_30_1225,SST,3.0.7,23.99105521299528,
go,sst_images/Right_Arrow.bmp,None,2,867,None,0,126,126,126,,2,1,0.7134978600079194,go,0.3,0.867,1.867,026,Scanner,R,2,2019_Aug_30_1225,SST,3.0.7,23.99105521299528,
go,sst_images/Left_Arrow.bmp,None,1,979,None,0,127,127,127,,1,1,0.5024387150187977,go,0.3,0.979,1.979,026,Scanner,R,2,2019_Aug_30_1225,SST,3.0.7,23.99105521299528,
stop,sst_images/Left_Arrow.bmp,sst_images/Stop_Arrow.bmp,none,812,None,0,128,128,128,,None,1,,stop,0.35,0.812,1.812,026,Scanner,R,2,2019_Aug_30_1225,SST,3.0.7,23.99105521299528,
go,sst_images/Left_Arrow.bmp,None,1,997,None,0,129,129,129,,1,1,0.5886431049439125,go,0.35,0.997,1.9969999999999999,026,Scanner,R,2,2019_Aug_30_1225,SST,3.0.7,23.99105521299528,
go,sst_images/Left_Arrow.bmp,None,1,848,None,0,130,130,130,,1,1,0.6689430199912749,go,0.35,0.848,1.8479999999999999,026,Scanner,R,2,2019_Aug_30_1225,SST,3.0.7,23.99105521299528,
go,sst_images/Right_Arrow.bmp,None,2,818,None,0,131,131,131,,2,1,0.6313571960199624,go,0.35,0.818,1.818,026,Scanner,R,2,2019_Aug_30_1225,SST,3.0.7,23.99105521299528,
stop,sst_images/Left_Arrow.bmp,sst_images/Stop_Arrow.bmp,none,743,None,0,132,132,132,,1,0,0.5287520700367168,stop,0.3,0.743,1.8642479299632833,026,Scanner,R,2,2019_Aug_30_1225,SST,3.0.7,23.99105521299528,
go,sst_images/Left_Arrow.bmp,None,1,965,None,0,133,133,133,,1,1,0.7960869320086204,go,0.3,0.965,1.9649999999999999,026,Scanner,R,2,2019_Aug_30_1225,SST,3.0.7,23.99105521299528,
go,sst_images/Left_Arrow.bmp,None,1,758,None,0,134,134,134,,1,1,0.5441685889963992,go,0.3,0.758,1.758,026,Scanner,R,2,2019_Aug_30_1225,SST,3.0.7,23.99105521299528,
stop,sst_images/Right_Arrow.bmp,sst_images/Stop_Arrow.bmp,none,746,None,0,135,135,135,,2,0,0.5263249250128865,stop,0.25,0.746,1.8196750749871136,026,Scanner,R,2,2019_Aug_30_1225,SST,3.0.7,23.99105521299528,
go,sst_images/Right_Arrow.bmp,None,2,811,None,0,136,136,136,,2,1,0.5873471969971433,go,0.25,0.811,1.811,026,Scanner,R,2,2019_Aug_30_1225,SST,3.0.7,23.99105521299528,
go,sst_images/Right_Arrow.bmp,None,2,771,None,0,137,137,137,,2,1,0.46008073195116594,go,0.25,0.771,1.771,026,Scanner,R,2,2019_Aug_30_1225,SST,3.0.7,23.99105521299528,
stop,sst_images/Left_Arrow.bmp,sst_images/Stop_Arrow.bmp,none,702,None,0,138,138,138,,None,1,,stop,0.3,0.702,1.702,026,Scanner,R,2,2019_Aug_30_1225,SST,3.0.7,23.99105521299528,
go,sst_images/Left_Arrow.bmp,None,1,1050,None,0,139,139,139,,1,1,0.5867961309850216,go,0.3,1.05,2.05,026,Scanner,R,2,2019_Aug_30_1225,SST,3.0.7,23.99105521299528,
go,sst_images/Right_Arrow.bmp,None,2,743,None,0,140,140,140,,2,1,0.6702640709700063,go,0.3,0.743,1.7429999999999999,026,Scanner,R,2,2019_Aug_30_1225,SST,3.0.7,23.99105521299528,
go,sst_images/Left_Arrow.bmp,None,1,746,None,0,141,141,141,,1,1,0.5465977059793659,go,0.3,0.746,1.746,026,Scanner,R,2,2019_Aug_30_1225,SST,3.0.7,23.99105521299528,
stop,sst_images/Right_Arrow.bmp,sst_images/Stop_Arrow.bmp,none,720,None,0,142,142,142,,None,1,,stop,0.35,0.72,1.72,026,Scanner,R,2,2019_Aug_30_1225,SST,3.0.7,23.99105521299528,
go,sst_images/Left_Arrow.bmp,None,1,739,None,0,143,143,143,,1,1,0.5455737870070152,go,0.35,0.739,1.7389999999999999,026,Scanner,R,2,2019_Aug_30_1225,SST,3.0.7,23.99105521299528,
go,sst_images/Right_Arrow.bmp,None,2,930,None,0,144,144,144,,2,1,0.6275294100050814,go,0.35,0.93,1.9300000000000002,026,Scanner,R,2,2019_Aug_30_1225,SST,3.0.7,23.99105521299528,
go,sst_images/Left_Arrow.bmp,None,1,1691,None,0,145,145,145,,1,1,0.5056790770031512,go,0.35,1.691,2.691,026,Scanner,R,2,2019_Aug_30_1225,SST,3.0.7,23.99105521299528,
go,sst_images/Right_Arrow.bmp,None,2,768,None,0,146,146,146,,2,1,0.7559810319798999,go,0.35,0.768,1.768,026,Scanner,R,2,2019_Aug_30_1225,SST,3.0.7,23.99105521299528,
go,sst_images/Left_Arrow.bmp,None,1,2000,None,0,147,147,147,,None,0,,go,0.35,2.0,3.0,026,Scanner,R,2,2019_Aug_30_1225,SST,3.0.7,23.99105521299528,
go,sst_images/Right_Arrow.bmp,None,2,811,None,0,148,148,148,,2,1,0.5419589119846933,go,0.35,0.811,1.811,026,Scanner,R,2,2019_Aug_30_1225,SST,3.0.7,23.99105521299528,
stop,sst_images/Right_Arrow.bmp,sst_images/Stop_Arrow.bmp,none,730,None,0,149,149,149,,2,0,0.6233091659960337,stop,0.3,0.73,1.7566908340039664,026,Scanner,R,2,2019_Aug_30_1225,SST,3.0.7,23.99105521299528,
go,sst_images/Right_Arrow.bmp,None,2,729,None,0,150,150,150,,None,0,,go,0.3,0.729,1.729,026,Scanner,R,2,2019_Aug_30_1225,SST,3.0.7,23.99105521299528,
go,sst_images/Left_Arrow.bmp,None,1,741,None,0,151,151,151,,1,1,0.46252855204511434,go,0.3,0.741,1.741,026,Scanner,R,2,2019_Aug_30_1225,SST,3.0.7,23.99105521299528,
go,sst_images/Right_Arrow.bmp,None,2,863,None,0,152,152,152,,2,1,0.46445629600202665,go,0.3,0.863,1.863,026,Scanner,R,2,2019_Aug_30_1225,SST,3.0.7,23.99105521299528,
go,sst_images/Left_Arrow.bmp,None,1,781,None,0,153,153,153,,1,1,0.4583585250074975,go,0.3,0.781,1.7810000000000001,026,Scanner,R,2,2019_Aug_30_1225,SST,3.0.7,23.99105521299528,
stop,sst_images/Left_Arrow.bmp,sst_images/Stop_Arrow.bmp,none,797,None,0,154,154,154,,1,0,0.5239842060254887,stop,0.25,0.797,1.8730157939745116,026,Scanner,R,2,2019_Aug_30_1225,SST,3.0.7,23.99105521299528,
go,sst_images/Right_Arrow.bmp,None,2,725,None,0,155,155,155,,2,1,0.5471345250261948,go,0.25,0.725,1.725,026,Scanner,R,2,2019_Aug_30_1225,SST,3.0.7,23.99105521299528,
go,sst_images/Left_Arrow.bmp,None,1,1040,None,0,156,156,156,,1,1,0.6668439010391012,go,0.25,1.04,2.04,026,Scanner,R,2,2019_Aug_30_1225,SST,3.0.7,23.99105521299528,
stop,sst_images/Left_Arrow.bmp,sst_images/Stop_Arrow.bmp,none,726,None,0,157,157,157,,1,0,0.567862719995901,stop,0.2,0.726,1.708137280004099,026,Scanner,R,2,2019_Aug_30_1225,SST,3.0.7,23.99105521299528,
go,sst_images/Right_Arrow.bmp,None,2,759,None,0,158,158,158,,2,1,0.5444098340230994,go,0.2,0.759,1.759,026,Scanner,R,2,2019_Aug_30_1225,SST,3.0.7,23.99105521299528,
go,sst_images/Left_Arrow.bmp,None,1,816,None,0,159,159,159,,1,1,0.8194935739738867,go,0.2,0.816,1.8159999999999998,026,Scanner,R,2,2019_Aug_30_1225,SST,3.0.7,23.99105521299528,
go,sst_images/Left_Arrow.bmp,None,1,706,None,0,160,160,160,,1,1,0.7960575140314177,go,0.2,0.706,1.706,026,Scanner,R,2,2019_Aug_30_1225,SST,3.0.7,23.99105521299528,
go,sst_images/Right_Arrow.bmp,None,2,997,None,0,161,161,161,,2,1,0.7094560950063169,go,0.2,0.997,1.9969999999999999,026,Scanner,R,2,2019_Aug_30_1225,SST,3.0.7,23.99105521299528,
go,sst_images/Left_Arrow.bmp,None,1,1279,None,0,162,162,162,,1,1,0.6281919989851303,go,0.2,1.279,2.279,026,Scanner,R,2,2019_Aug_30_1225,SST,3.0.7,23.99105521299528,
go,sst_images/Right_Arrow.bmp,None,2,887,None,0,163,163,163,,2,1,0.7031199569464661,go,0.2,0.887,1.887,026,Scanner,R,2,2019_Aug_30_1225,SST,3.0.7,23.99105521299528,
go,sst_images/Right_Arrow.bmp,None,2,880,None,0,164,164,164,,2,1,0.6717167560127564,go,0.2,0.88,1.88,026,Scanner,R,2,2019_Aug_30_1225,SST,3.0.7,23.99105521299528,
go,sst_images/Right_Arrow.bmp,None,2,1248,None,0,165,165,165,,2,1,0.7504331020172685,go,0.2,1.248,2.248,026,Scanner,R,2,2019_Aug_30_1225,SST,3.0.7,23.99105521299528,
go,sst_images/Left_Arrow.bmp,None,1,863,None,0,166,166,166,,1,1,0.7100234649842605,go,0.2,0.863,1.863,026,Scanner,R,2,2019_Aug_30_1225,SST,3.0.7,23.99105521299528,
go,sst_images/Right_Arrow.bmp,None,2,850,None,0,167,167,167,,2,1,0.7481150459498167,go,0.2,0.85,1.85,026,Scanner,R,2,2019_Aug_30_1225,SST,3.0.7,23.99105521299528,
stop,sst_images/Left_Arrow.bmp,sst_images/Stop_Arrow.bmp,none,1050,None,0,168,168,168,,None,1,,stop,0.25,1.05,2.05,026,Scanner,R,2,2019_Aug_30_1225,SST,3.0.7,23.99105521299528,
go,sst_images/Right_Arrow.bmp,None,2,967,None,0,169,169,169,,2,1,0.542721334961243,go,0.25,0.967,1.967,026,Scanner,R,2,2019_Aug_30_1225,SST,3.0.7,23.99105521299528,
go,sst_images/Left_Arrow.bmp,None,1,924,None,0,170,170,170,,1,1,0.5829227449721657,go,0.25,0.924,1.924,026,Scanner,R,2,2019_Aug_30_1225,SST,3.0.7,23.99105521299528,
go,sst_images/Right_Arrow.bmp,None,2,861,None,0,171,171,171,,2,1,0.7125428430153988,go,0.25,0.861,1.861,026,Scanner,R,2,2019_Aug_30_1225,SST,3.0.7,23.99105521299528,
go,sst_images/Right_Arrow.bmp,None,2,781,None,0,172,172,172,,2,1,0.7981854079989716,go,0.25,0.781,1.7810000000000001,026,Scanner,R,2,2019_Aug_30_1225,SST,3.0.7,23.99105521299528,
go,sst_images/Right_Arrow.bmp,None,2,740,None,0,173,173,173,,2,1,0.6710924219805747,go,0.25,0.74,1.74,026,Scanner,R,2,2019_Aug_30_1225,SST,3.0.7,23.99105521299528,
go,sst_images/Left_Arrow.bmp,None,1,727,None,0,174,174,174,,1,1,0.5425353510072455,go,0.25,0.727,1.7269999999999999,026,Scanner,R,2,2019_Aug_30_1225,SST,3.0.7,23.99105521299528,
stop,sst_images/Right_Arrow.bmp,sst_images/Stop_Arrow.bmp,none,795,None,0,175,175,175,,None,1,,stop,0.3,0.795,1.7950000000000002,026,Scanner,R,2,2019_Aug_30_1225,SST,3.0.7,23.99105521299528,
go,sst_images/Right_Arrow.bmp,None,2,813,None,0,176,176,176,,2,1,0.7100723320036195,go,0.3,0.813,1.813,026,Scanner,R,2,2019_Aug_30_1225,SST,3.0.7,23.99105521299528,
go,sst_images/Left_Arrow.bmp,None,1,750,None,0,177,177,177,,1,1,0.5889584720134735,go,0.3,0.75,1.75,026,Scanner,R,2,2019_Aug_30_1225,SST,3.0.7,23.99105521299528,
stop,sst_images/Left_Arrow.bmp,sst_images/Stop_Arrow.bmp,none,740,None,0,178,178,178,,1,0,0.57243474497227,stop,0.25,0.74,1.76756525502773,026,Scanner,R,2,2019_Aug_30_1225,SST,3.0.7,23.99105521299528,
go,sst_images/Right_Arrow.bmp,None,2,1094,5200.0,0,179,179,179,,2,1,0.6321582380332984,go,0.25,1.094,2.0940000000000003,026,Scanner,R,2,2019_Aug_30_1225,SST,3.0.7,23.99105521299528,
