trial_type,arrow_1,arrow_2,corrAns,jitter,run_end_fixation,trials.thisRepN,trials.thisTrialN,trials.thisN,trials.thisIndex,randomized TrialOrder,key_response.keys,key_response.corr,key_response.rt,trial_t.routineEndVal,ss_delay,iti_duration,SOA,participant,prac_or_scan,handedness,run,date,expName,psychopyVersion,frameRate,
go,sst_images/Left_Arrow.bmp,None,1,888,None,0,0,0,0,9,1,1,0.5525987059809268,go,0.05,0.888,1.888,028,Scanner,R,2,2019_Sep_01_1319,SST,3.0.7,60.408568524622126,
go,sst_images/Right_Arrow.bmp,None,2,728,None,0,1,1,1,,2,1,0.32196409499738365,go,0.05,0.728,1.728,028,Scanner,R,2,2019_Sep_01_1319,SST,3.0.7,60.408568524622126,
stop,sst_images/Right_Arrow.bmp,sst_images/Stop_Arrow.bmp,none,714,None,0,2,2,2,,None,1,,stop,0.1,0.714,1.714,028,Scanner,R,2,2019_Sep_01_1319,SST,3.0.7,60.408568524622126,
go,sst_images/Right_Arrow.bmp,None,2,773,None,0,3,3,3,,2,1,0.39009131904458627,go,0.1,0.773,1.7730000000000001,028,Scanner,R,2,2019_Sep_01_1319,SST,3.0.7,60.408568524622126,
go,sst_images/Left_Arrow.bmp,None,1,905,None,0,4,4,4,,1,1,0.3376726729911752,go,0.1,0.905,1.905,028,Scanner,R,2,2019_Sep_01_1319,SST,3.0.7,60.408568524622126,
stop,sst_images/Left_Arrow.bmp,sst_images/Stop_Arrow.bmp,none,714,None,0,5,5,5,,None,1,,stop,0.15000000000000002,0.714,1.7140000000000002,028,Scanner,R,2,2019_Sep_01_1319,SST,3.0.7,60.408568524622126,
go,sst_images/Left_Arrow.bmp,None,1,713,None,0,6,6,6,,1,1,0.45352446200558916,go,0.15000000000000002,0.713,1.713,028,Scanner,R,2,2019_Sep_01_1319,SST,3.0.7,60.408568524622126,
go,sst_images/Right_Arrow.bmp,None,2,752,None,0,7,7,7,,2,1,0.37384807399939746,go,0.15000000000000002,0.752,1.752,028,Scanner,R,2,2019_Sep_01_1319,SST,3.0.7,60.408568524622126,
go,sst_images/Left_Arrow.bmp,None,1,788,None,0,8,8,8,,1,1,0.6062984149903059,go,0.15000000000000002,0.788,1.788,028,Scanner,R,2,2019_Sep_01_1319,SST,3.0.7,60.408568524622126,
go,sst_images/Right_Arrow.bmp,None,2,1024,None,0,9,9,9,,2,1,0.6543350220308639,go,0.15000000000000002,1.024,2.024,028,Scanner,R,2,2019_Sep_01_1319,SST,3.0.7,60.408568524622126,
go,sst_images/Right_Arrow.bmp,None,2,759,None,0,10,10,10,,2,1,0.5547257260186598,go,0.15000000000000002,0.759,1.759,028,Scanner,R,2,2019_Sep_01_1319,SST,3.0.7,60.408568524622126,
go,sst_images/Left_Arrow.bmp,None,1,743,None,0,11,11,11,,1,1,0.5419546799967065,go,0.15000000000000002,0.743,1.7429999999999999,028,Scanner,R,2,2019_Sep_01_1319,SST,3.0.7,60.408568524622126,
go,sst_images/Right_Arrow.bmp,None,2,739,None,0,12,12,12,,2,1,0.505205981025938,go,0.15000000000000002,0.739,1.7389999999999999,028,Scanner,R,2,2019_Sep_01_1319,SST,3.0.7,60.408568524622126,
go,sst_images/Left_Arrow.bmp,None,1,1076,None,0,13,13,13,,1,1,0.5385888189775869,go,0.15000000000000002,1.076,2.076,028,Scanner,R,2,2019_Sep_01_1319,SST,3.0.7,60.408568524622126,
go,sst_images/Left_Arrow.bmp,None,1,922,None,0,14,14,14,,1,1,0.5724642690038309,go,0.15000000000000002,0.922,1.9220000000000002,028,Scanner,R,2,2019_Sep_01_1319,SST,3.0.7,60.408568524622126,
stop,sst_images/Left_Arrow.bmp,sst_images/Stop_Arrow.bmp,none,1239,None,0,15,15,15,,None,1,,stop,0.2,1.239,2.239,028,Scanner,R,2,2019_Sep_01_1319,SST,3.0.7,60.408568524622126,
go,sst_images/Left_Arrow.bmp,None,1,915,None,0,16,16,16,,1,1,0.5183727400144562,go,0.2,0.915,1.915,028,Scanner,R,2,2019_Sep_01_1319,SST,3.0.7,60.408568524622126,
go,sst_images/Right_Arrow.bmp,None,2,1121,None,0,17,17,17,,2,1,0.35535433603217825,go,0.2,1.121,2.121,028,Scanner,R,2,2019_Sep_01_1319,SST,3.0.7,60.408568524622126,
go,sst_images/Left_Arrow.bmp,None,1,709,None,0,18,18,18,,1,1,0.3036232119775377,go,0.2,0.709,1.709,028,Scanner,R,2,2019_Sep_01_1319,SST,3.0.7,60.408568524622126,
go,sst_images/Left_Arrow.bmp,None,1,1765,None,0,19,19,19,,1,1,0.5215049849939533,go,0.2,1.765,2.7649999999999997,028,Scanner,R,2,2019_Sep_01_1319,SST,3.0.7,60.408568524622126,
go,sst_images/Right_Arrow.bmp,None,2,824,None,0,20,20,20,,2,1,0.37029415200231597,go,0.2,0.824,1.8239999999999998,028,Scanner,R,2,2019_Sep_01_1319,SST,3.0.7,60.408568524622126,
go,sst_images/Left_Arrow.bmp,None,1,1236,None,0,21,21,21,,1,1,0.43704721599351615,go,0.2,1.236,2.2359999999999998,028,Scanner,R,2,2019_Sep_01_1319,SST,3.0.7,60.408568524622126,
go,sst_images/Right_Arrow.bmp,None,2,982,None,0,22,22,22,,2,1,0.40508668398251757,go,0.2,0.982,1.982,028,Scanner,R,2,2019_Sep_01_1319,SST,3.0.7,60.408568524622126,
stop,sst_images/Right_Arrow.bmp,sst_images/Stop_Arrow.bmp,none,713,None,0,23,23,23,,None,1,,stop,0.25,0.713,1.7129999999999999,028,Scanner,R,2,2019_Sep_01_1319,SST,3.0.7,60.408568524622126,
go,sst_images/Left_Arrow.bmp,None,1,1011,None,0,24,24,24,,1,1,0.42087944701779634,go,0.25,1.011,2.011,028,Scanner,R,2,2019_Sep_01_1319,SST,3.0.7,60.408568524622126,
go,sst_images/Right_Arrow.bmp,None,2,756,None,0,25,25,25,,2,1,0.3211521769990213,go,0.25,0.756,1.756,028,Scanner,R,2,2019_Sep_01_1319,SST,3.0.7,60.408568524622126,
go,sst_images/Right_Arrow.bmp,None,2,702,None,0,26,26,26,,1,0,0.3883671489893459,go,0.25,0.702,1.702,028,Scanner,R,2,2019_Sep_01_1319,SST,3.0.7,60.408568524622126,
go,sst_images/Left_Arrow.bmp,None,1,1239,None,0,27,27,27,,1,1,0.421505399979651,go,0.25,1.239,2.239,028,Scanner,R,2,2019_Sep_01_1319,SST,3.0.7,60.408568524622126,
go,sst_images/Right_Arrow.bmp,None,2,887,None,0,28,28,28,,2,1,0.43373261200031266,go,0.25,0.887,1.887,028,Scanner,R,2,2019_Sep_01_1319,SST,3.0.7,60.408568524622126,
go,sst_images/Right_Arrow.bmp,None,2,849,None,0,29,29,29,,2,1,0.40880481799831614,go,0.25,0.849,1.849,028,Scanner,R,2,2019_Sep_01_1319,SST,3.0.7,60.408568524622126,
stop,sst_images/Right_Arrow.bmp,sst_images/Stop_Arrow.bmp,none,759,None,0,30,30,30,,2,0,0.4199956889497116,stop,0.2,0.759,1.8890043110502883,028,Scanner,R,2,2019_Sep_01_1319,SST,3.0.7,60.408568524622126,
go,sst_images/Left_Arrow.bmp,None,1,717,None,0,31,31,31,,1,1,0.3879700090037659,go,0.2,0.717,1.717,028,Scanner,R,2,2019_Sep_01_1319,SST,3.0.7,60.408568524622126,
go,sst_images/Right_Arrow.bmp,None,2,922,None,0,32,32,32,,2,1,0.5363777569727972,go,0.2,0.922,1.9220000000000002,028,Scanner,R,2,2019_Sep_01_1319,SST,3.0.7,60.408568524622126,
stop,sst_images/Left_Arrow.bmp,sst_images/Stop_Arrow.bmp,none,885,None,0,33,33,33,,None,1,,stop,0.25,0.885,1.885,028,Scanner,R,2,2019_Sep_01_1319,SST,3.0.7,60.408568524622126,
go,sst_images/Left_Arrow.bmp,None,1,1045,None,0,34,34,34,,1,1,0.4526153560145758,go,0.25,1.045,2.045,028,Scanner,R,2,2019_Sep_01_1319,SST,3.0.7,60.408568524622126,
go,sst_images/Left_Arrow.bmp,None,1,826,None,0,35,35,35,,1,1,0.5708411569939926,go,0.25,0.826,1.826,028,Scanner,R,2,2019_Sep_01_1319,SST,3.0.7,60.408568524622126,
go,sst_images/Right_Arrow.bmp,None,2,1091,None,0,36,36,36,,2,1,0.5197299580322579,go,0.25,1.091,2.091,028,Scanner,R,2,2019_Sep_01_1319,SST,3.0.7,60.408568524622126,
stop,sst_images/Right_Arrow.bmp,sst_images/Stop_Arrow.bmp,none,786,None,0,37,37,37,,2,0,0.4519092830014415,stop,0.2,0.786,1.8840907169985586,028,Scanner,R,2,2019_Sep_01_1319,SST,3.0.7,60.408568524622126,
go,sst_images/Right_Arrow.bmp,None,2,921,None,0,38,38,38,,2,1,0.5041065539699048,go,0.2,0.921,1.921,028,Scanner,R,2,2019_Sep_01_1319,SST,3.0.7,60.408568524622126,
go,sst_images/Left_Arrow.bmp,None,1,755,None,0,39,39,39,,1,1,0.8211377859697677,go,0.2,0.755,1.755,028,Scanner,R,2,2019_Sep_01_1319,SST,3.0.7,60.408568524622126,
go,sst_images/Left_Arrow.bmp,None,1,1085,None,0,40,40,40,,1,1,0.4355160719715059,go,0.2,1.085,2.085,028,Scanner,R,2,2019_Sep_01_1319,SST,3.0.7,60.408568524622126,
go,sst_images/Right_Arrow.bmp,None,2,825,None,0,41,41,41,,2,1,0.48650272900704294,go,0.2,0.825,1.825,028,Scanner,R,2,2019_Sep_01_1319,SST,3.0.7,60.408568524622126,
go,sst_images/Left_Arrow.bmp,None,1,741,None,0,42,42,42,,1,1,0.40402467601234093,go,0.2,0.741,1.741,028,Scanner,R,2,2019_Sep_01_1319,SST,3.0.7,60.408568524622126,
go,sst_images/Left_Arrow.bmp,None,1,953,None,0,43,43,43,,1,1,0.5055403099977411,go,0.2,0.953,1.9529999999999998,028,Scanner,R,2,2019_Sep_01_1319,SST,3.0.7,60.408568524622126,
stop,sst_images/Right_Arrow.bmp,sst_images/Stop_Arrow.bmp,none,746,None,0,44,44,44,,2,0,0.35245476296404377,stop,0.15000000000000002,0.746,1.8935452370359562,028,Scanner,R,2,2019_Sep_01_1319,SST,3.0.7,60.408568524622126,
go,sst_images/Right_Arrow.bmp,None,2,813,None,0,45,45,45,,2,1,0.5031511230044998,go,0.15000000000000002,0.813,1.813,028,Scanner,R,2,2019_Sep_01_1319,SST,3.0.7,60.408568524622126,
go,sst_images/Right_Arrow.bmp,None,2,846,None,0,46,46,46,,2,1,0.4880805910215713,go,0.15000000000000002,0.846,1.846,028,Scanner,R,2,2019_Sep_01_1319,SST,3.0.7,60.408568524622126,
go,sst_images/Right_Arrow.bmp,None,2,952,None,0,47,47,47,,2,1,0.554001821030397,go,0.15000000000000002,0.952,1.952,028,Scanner,R,2,2019_Sep_01_1319,SST,3.0.7,60.408568524622126,
go,sst_images/Left_Arrow.bmp,None,1,702,None,0,48,48,48,,1,1,0.5540591739700176,go,0.15000000000000002,0.702,1.702,028,Scanner,R,2,2019_Sep_01_1319,SST,3.0.7,60.408568524622126,
go,sst_images/Left_Arrow.bmp,None,1,763,None,0,49,49,49,,1,1,0.5504211729858071,go,0.15000000000000002,0.763,1.763,028,Scanner,R,2,2019_Sep_01_1319,SST,3.0.7,60.408568524622126,
stop,sst_images/Left_Arrow.bmp,sst_images/Stop_Arrow.bmp,none,1087,None,0,50,50,50,,None,1,,stop,0.2,1.087,2.0869999999999997,028,Scanner,R,2,2019_Sep_01_1319,SST,3.0.7,60.408568524622126,
go,sst_images/Left_Arrow.bmp,None,1,801,None,0,51,51,51,,1,1,0.45355423603905365,go,0.2,0.801,1.8010000000000002,028,Scanner,R,2,2019_Sep_01_1319,SST,3.0.7,60.408568524622126,
go,sst_images/Right_Arrow.bmp,None,2,810,None,0,52,52,52,,2,1,0.35178388201165944,go,0.2,0.81,1.81,028,Scanner,R,2,2019_Sep_01_1319,SST,3.0.7,60.408568524622126,
go,sst_images/Right_Arrow.bmp,None,2,715,None,0,53,53,53,,2,1,0.43508837500121444,go,0.2,0.715,1.7149999999999999,028,Scanner,R,2,2019_Sep_01_1319,SST,3.0.7,60.408568524622126,
go,sst_images/Left_Arrow.bmp,None,1,1023,None,0,54,54,54,,1,1,0.5048063269932754,go,0.2,1.023,2.0229999999999997,028,Scanner,R,2,2019_Sep_01_1319,SST,3.0.7,60.408568524622126,
go,sst_images/Left_Arrow.bmp,None,1,769,None,0,55,55,55,,1,1,0.521009731979575,go,0.2,0.769,1.7690000000000001,028,Scanner,R,2,2019_Sep_01_1319,SST,3.0.7,60.408568524622126,
stop,sst_images/Right_Arrow.bmp,sst_images/Stop_Arrow.bmp,none,825,None,0,56,56,56,,2,0,0.3870658899541013,stop,0.15000000000000002,0.825,1.9379341100458987,028,Scanner,R,2,2019_Sep_01_1319,SST,3.0.7,60.408568524622126,
go,sst_images/Left_Arrow.bmp,None,1,757,None,0,57,57,57,,1,1,0.6189207170391455,go,0.15000000000000002,0.757,1.7570000000000001,028,Scanner,R,2,2019_Sep_01_1319,SST,3.0.7,60.408568524622126,
go,sst_images/Right_Arrow.bmp,None,2,742,None,0,58,58,58,,2,1,0.5038169369800016,go,0.15000000000000002,0.742,1.742,028,Scanner,R,2,2019_Sep_01_1319,SST,3.0.7,60.408568524622126,
go,sst_images/Left_Arrow.bmp,None,1,817,None,0,59,59,59,,1,1,0.45216064900159836,go,0.15000000000000002,0.817,1.817,028,Scanner,R,2,2019_Sep_01_1319,SST,3.0.7,60.408568524622126,
go,sst_images/Left_Arrow.bmp,None,1,1011,None,0,60,60,60,,1,1,0.5054738809703849,go,0.15000000000000002,1.011,2.011,028,Scanner,R,2,2019_Sep_01_1319,SST,3.0.7,60.408568524622126,
stop,sst_images/Left_Arrow.bmp,sst_images/Stop_Arrow.bmp,none,872,None,0,61,61,61,,None,1,,stop,0.2,0.872,1.872,028,Scanner,R,2,2019_Sep_01_1319,SST,3.0.7,60.408568524622126,
go,sst_images/Right_Arrow.bmp,None,2,701,None,0,62,62,62,,2,1,0.5861034699482843,go,0.2,0.701,1.701,028,Scanner,R,2,2019_Sep_01_1319,SST,3.0.7,60.408568524622126,
go,sst_images/Right_Arrow.bmp,None,2,780,None,0,63,63,63,,2,1,0.41941850702278316,go,0.2,0.78,1.78,028,Scanner,R,2,2019_Sep_01_1319,SST,3.0.7,60.408568524622126,
stop,sst_images/Right_Arrow.bmp,sst_images/Stop_Arrow.bmp,none,780,None,0,64,64,64,,None,1,,stop,0.25,0.78,1.78,028,Scanner,R,2,2019_Sep_01_1319,SST,3.0.7,60.408568524622126,
go,sst_images/Left_Arrow.bmp,None,1,890,None,0,65,65,65,,1,1,0.43873409199295565,go,0.25,0.89,1.8900000000000001,028,Scanner,R,2,2019_Sep_01_1319,SST,3.0.7,60.408568524622126,
go,sst_images/Right_Arrow.bmp,None,2,770,None,0,66,66,66,,2,1,0.6711646839976311,go,0.25,0.77,1.77,028,Scanner,R,2,2019_Sep_01_1319,SST,3.0.7,60.408568524622126,
go,sst_images/Left_Arrow.bmp,None,1,728,None,0,67,67,67,,1,1,0.45425511099165305,go,0.25,0.728,1.728,028,Scanner,R,2,2019_Sep_01_1319,SST,3.0.7,60.408568524622126,
go,sst_images/Right_Arrow.bmp,None,2,781,None,0,68,68,68,,2,1,0.45326367899542674,go,0.25,0.781,1.7810000000000001,028,Scanner,R,2,2019_Sep_01_1319,SST,3.0.7,60.408568524622126,
stop,sst_images/Right_Arrow.bmp,sst_images/Stop_Arrow.bmp,none,1171,None,0,69,69,69,,2,0,0.4541944810189307,stop,0.2,1.171,2.2668055189810694,028,Scanner,R,2,2019_Sep_01_1319,SST,3.0.7,60.408568524622126,
go,sst_images/Right_Arrow.bmp,None,2,819,None,0,70,70,70,,2,1,0.4023300049593672,go,0.2,0.819,1.819,028,Scanner,R,2,2019_Sep_01_1319,SST,3.0.7,60.408568524622126,
go,sst_images/Left_Arrow.bmp,None,1,1105,None,0,71,71,71,,1,1,0.41104489302961156,go,0.2,1.105,2.105,028,Scanner,R,2,2019_Sep_01_1319,SST,3.0.7,60.408568524622126,
go,sst_images/Right_Arrow.bmp,None,2,734,None,0,72,72,72,,2,1,0.3532861709827557,go,0.2,0.734,1.734,028,Scanner,R,2,2019_Sep_01_1319,SST,3.0.7,60.408568524622126,
go,sst_images/Left_Arrow.bmp,None,1,719,None,0,73,73,73,,1,1,0.6139465700252913,go,0.2,0.719,1.7189999999999999,028,Scanner,R,2,2019_Sep_01_1319,SST,3.0.7,60.408568524622126,
go,sst_images/Right_Arrow.bmp,None,2,716,None,0,74,74,74,,2,1,0.5035689490032382,go,0.2,0.716,1.716,028,Scanner,R,2,2019_Sep_01_1319,SST,3.0.7,60.408568524622126,
stop,sst_images/Left_Arrow.bmp,sst_images/Stop_Arrow.bmp,none,824,None,0,75,75,75,,None,1,,stop,0.25,0.824,1.8239999999999998,028,Scanner,R,2,2019_Sep_01_1319,SST,3.0.7,60.408568524622126,
go,sst_images/Left_Arrow.bmp,None,1,914,None,0,76,76,76,,1,1,0.4652507270220667,go,0.25,0.914,1.9140000000000001,028,Scanner,R,2,2019_Sep_01_1319,SST,3.0.7,60.408568524622126,
go,sst_images/Right_Arrow.bmp,None,2,746,None,0,77,77,77,,2,1,0.3546567599987611,go,0.25,0.746,1.746,028,Scanner,R,2,2019_Sep_01_1319,SST,3.0.7,60.408568524622126,
go,sst_images/Right_Arrow.bmp,None,2,798,None,0,78,78,78,,2,1,0.5048412660253234,go,0.25,0.798,1.798,028,Scanner,R,2,2019_Sep_01_1319,SST,3.0.7,60.408568524622126,
stop,sst_images/Right_Arrow.bmp,sst_images/Stop_Arrow.bmp,none,704,None,0,79,79,79,,2,0,0.49788137897849083,stop,0.2,0.704,1.7561186210215092,028,Scanner,R,2,2019_Sep_01_1319,SST,3.0.7,60.408568524622126,
go,sst_images/Left_Arrow.bmp,None,1,1087,None,0,80,80,80,,1,1,0.5023497299989685,go,0.2,1.087,2.0869999999999997,028,Scanner,R,2,2019_Sep_01_1319,SST,3.0.7,60.408568524622126,
go,sst_images/Left_Arrow.bmp,None,1,1029,None,0,81,81,81,,1,1,0.4629880439606495,go,0.2,1.029,2.029,028,Scanner,R,2,2019_Sep_01_1319,SST,3.0.7,60.408568524622126,
go,sst_images/Right_Arrow.bmp,None,2,714,None,0,82,82,82,,2,1,0.47551031003240496,go,0.2,0.714,1.714,028,Scanner,R,2,2019_Sep_01_1319,SST,3.0.7,60.408568524622126,
go,sst_images/Right_Arrow.bmp,None,2,776,None,0,83,83,83,,2,1,0.5212666150182486,go,0.2,0.776,1.776,028,Scanner,R,2,2019_Sep_01_1319,SST,3.0.7,60.408568524622126,
stop,sst_images/Right_Arrow.bmp,sst_images/Stop_Arrow.bmp,none,1011,None,0,84,84,84,,2,0,0.40081849199486896,stop,0.15000000000000002,1.011,2.1101815080051307,028,Scanner,R,2,2019_Sep_01_1319,SST,3.0.7,60.408568524622126,
go,sst_images/Right_Arrow.bmp,None,2,1280,None,0,85,85,85,,2,1,0.3785614779917523,go,0.15000000000000002,1.28,2.2800000000000002,028,Scanner,R,2,2019_Sep_01_1319,SST,3.0.7,60.408568524622126,
go,sst_images/Left_Arrow.bmp,None,1,1161,None,0,86,86,86,,1,1,0.45423358801053837,go,0.15000000000000002,1.161,2.161,028,Scanner,R,2,2019_Sep_01_1319,SST,3.0.7,60.408568524622126,
go,sst_images/Left_Arrow.bmp,None,1,840,None,0,87,87,87,,1,1,0.47113698604516685,go,0.15000000000000002,0.84,1.8399999999999999,028,Scanner,R,2,2019_Sep_01_1319,SST,3.0.7,60.408568524622126,
go,sst_images/Right_Arrow.bmp,None,2,863,None,0,88,88,88,,2,1,0.5699767580372281,go,0.15000000000000002,0.863,1.863,028,Scanner,R,2,2019_Sep_01_1319,SST,3.0.7,60.408568524622126,
stop,sst_images/Left_Arrow.bmp,sst_images/Stop_Arrow.bmp,none,980,None,0,89,89,89,,1,0,0.3546662300359458,stop,0.10000000000000002,0.98,2.075333769964054,028,Scanner,R,2,2019_Sep_01_1319,SST,3.0.7,60.408568524622126,
go,sst_images/Left_Arrow.bmp,None,1,859,None,0,90,90,90,,1,1,0.4551840830245055,go,0.10000000000000002,0.859,1.859,028,Scanner,R,2,2019_Sep_01_1319,SST,3.0.7,60.408568524622126,
go,sst_images/Right_Arrow.bmp,None,2,879,None,0,91,91,91,,2,1,0.3922720509581268,go,0.10000000000000002,0.879,1.879,028,Scanner,R,2,2019_Sep_01_1319,SST,3.0.7,60.408568524622126,
go,sst_images/Left_Arrow.bmp,None,1,773,None,0,92,92,92,,1,1,0.4121399540454149,go,0.10000000000000002,0.773,1.7730000000000001,028,Scanner,R,2,2019_Sep_01_1319,SST,3.0.7,60.408568524622126,
go,sst_images/Right_Arrow.bmp,None,2,701,None,0,93,93,93,,2,1,0.5041043029632419,go,0.10000000000000002,0.701,1.701,028,Scanner,R,2,2019_Sep_01_1319,SST,3.0.7,60.408568524622126,
go,sst_images/Left_Arrow.bmp,None,1,765,None,0,94,94,94,,1,1,0.668834768992383,go,0.10000000000000002,0.765,1.7650000000000001,028,Scanner,R,2,2019_Sep_01_1319,SST,3.0.7,60.408568524622126,
stop,sst_images/Left_Arrow.bmp,sst_images/Stop_Arrow.bmp,none,1276,None,0,95,95,95,,None,1,,stop,0.15000000000000002,1.276,2.276,028,Scanner,R,2,2019_Sep_01_1319,SST,3.0.7,60.408568524622126,
go,sst_images/Left_Arrow.bmp,None,1,719,None,0,96,96,96,,1,1,0.39198817702708766,go,0.15000000000000002,0.719,1.7189999999999999,028,Scanner,R,2,2019_Sep_01_1319,SST,3.0.7,60.408568524622126,
go,sst_images/Left_Arrow.bmp,None,1,1227,None,0,97,97,97,,1,1,0.42582715302705765,go,0.15000000000000002,1.227,2.2270000000000003,028,Scanner,R,2,2019_Sep_01_1319,SST,3.0.7,60.408568524622126,
go,sst_images/Right_Arrow.bmp,None,2,1039,None,0,98,98,98,,2,1,0.5206496600294486,go,0.15000000000000002,1.039,2.0389999999999997,028,Scanner,R,2,2019_Sep_01_1319,SST,3.0.7,60.408568524622126,
go,sst_images/Left_Arrow.bmp,None,1,770,None,0,99,99,99,,1,1,0.3945862629916519,go,0.15000000000000002,0.77,1.77,028,Scanner,R,2,2019_Sep_01_1319,SST,3.0.7,60.408568524622126,
go,sst_images/Right_Arrow.bmp,None,2,744,None,0,100,100,100,,2,1,0.3945118010160513,go,0.15000000000000002,0.744,1.744,028,Scanner,R,2,2019_Sep_01_1319,SST,3.0.7,60.408568524622126,
go,sst_images/Right_Arrow.bmp,None,2,767,None,0,101,101,101,,2,1,0.459160714992322,go,0.15000000000000002,0.767,1.767,028,Scanner,R,2,2019_Sep_01_1319,SST,3.0.7,60.408568524622126,
go,sst_images/Left_Arrow.bmp,None,1,792,None,0,102,102,102,,1,1,0.7939495390164666,go,0.15000000000000002,0.792,1.792,028,Scanner,R,2,2019_Sep_01_1319,SST,3.0.7,60.408568524622126,
go,sst_images/Right_Arrow.bmp,None,2,754,None,0,103,103,103,,None,0,,go,0.15000000000000002,0.754,1.754,028,Scanner,R,2,2019_Sep_01_1319,SST,3.0.7,60.408568524622126,
stop,sst_images/Right_Arrow.bmp,sst_images/Stop_Arrow.bmp,none,851,None,0,104,104,104,,None,1,,stop,0.2,0.851,1.8509999999999998,028,Scanner,R,2,2019_Sep_01_1319,SST,3.0.7,60.408568524622126,
go,sst_images/Right_Arrow.bmp,None,2,711,None,0,105,105,105,,2,1,0.4253928079851903,go,0.2,0.711,1.7109999999999999,028,Scanner,R,2,2019_Sep_01_1319,SST,3.0.7,60.408568524622126,
go,sst_images/Left_Arrow.bmp,None,1,824,None,0,106,106,106,,1,1,0.41042546002427116,go,0.2,0.824,1.8239999999999998,028,Scanner,R,2,2019_Sep_01_1319,SST,3.0.7,60.408568524622126,
go,sst_images/Left_Arrow.bmp,None,1,781,None,0,107,107,107,,1,1,0.5434131799847819,go,0.2,0.781,1.7810000000000001,028,Scanner,R,2,2019_Sep_01_1319,SST,3.0.7,60.408568524622126,
go,sst_images/Right_Arrow.bmp,None,2,786,None,0,108,108,108,,2,1,0.3067640039953403,go,0.2,0.786,1.786,028,Scanner,R,2,2019_Sep_01_1319,SST,3.0.7,60.408568524622126,
stop,sst_images/Left_Arrow.bmp,sst_images/Stop_Arrow.bmp,none,773,None,0,109,109,109,,1,0,0.34448506898479536,stop,0.15000000000000002,0.773,1.9285149310152048,028,Scanner,R,2,2019_Sep_01_1319,SST,3.0.7,60.408568524622126,
go,sst_images/Right_Arrow.bmp,None,2,964,None,0,110,110,110,,2,1,0.32622130296658725,go,0.15000000000000002,0.964,1.964,028,Scanner,R,2,2019_Sep_01_1319,SST,3.0.7,60.408568524622126,
go,sst_images/Left_Arrow.bmp,None,1,875,None,0,111,111,111,,1,1,0.308045168989338,go,0.15000000000000002,0.875,1.875,028,Scanner,R,2,2019_Sep_01_1319,SST,3.0.7,60.408568524622126,
go,sst_images/Right_Arrow.bmp,None,2,1041,None,0,112,112,112,,2,1,0.34074880700791255,go,0.15000000000000002,1.041,2.041,028,Scanner,R,2,2019_Sep_01_1319,SST,3.0.7,60.408568524622126,
go,sst_images/Left_Arrow.bmp,None,1,843,None,0,113,113,113,,1,1,0.4087029490037821,go,0.15000000000000002,0.843,1.843,028,Scanner,R,2,2019_Sep_01_1319,SST,3.0.7,60.408568524622126,
stop,sst_images/Left_Arrow.bmp,sst_images/Stop_Arrow.bmp,none,791,None,0,114,114,114,,None,1,,stop,0.2,0.791,1.7910000000000001,028,Scanner,R,2,2019_Sep_01_1319,SST,3.0.7,60.408568524622126,
go,sst_images/Right_Arrow.bmp,None,2,1018,None,0,115,115,115,,2,1,0.3906912810052745,go,0.2,1.018,2.018,028,Scanner,R,2,2019_Sep_01_1319,SST,3.0.7,60.408568524622126,
go,sst_images/Left_Arrow.bmp,None,1,1221,None,0,116,116,116,,1,1,0.3577381910290569,go,0.2,1.221,2.221,028,Scanner,R,2,2019_Sep_01_1319,SST,3.0.7,60.408568524622126,
stop,sst_images/Right_Arrow.bmp,sst_images/Stop_Arrow.bmp,none,755,None,0,117,117,117,,2,0,0.3603253500186838,stop,0.15000000000000002,0.755,1.894674649981316,028,Scanner,R,2,2019_Sep_01_1319,SST,3.0.7,60.408568524622126,
go,sst_images/Right_Arrow.bmp,None,2,965,None,0,118,118,118,,2,1,0.47533892100909725,go,0.15000000000000002,0.965,1.9649999999999999,028,Scanner,R,2,2019_Sep_01_1319,SST,3.0.7,60.408568524622126,
go,sst_images/Left_Arrow.bmp,None,1,873,None,0,119,119,119,,1,1,0.35141507303342223,go,0.15000000000000002,0.873,1.873,028,Scanner,R,2,2019_Sep_01_1319,SST,3.0.7,60.408568524622126,
stop,sst_images/Left_Arrow.bmp,sst_images/Stop_Arrow.bmp,none,746,None,0,120,120,120,,None,1,,stop,0.2,0.746,1.7459999999999998,028,Scanner,R,2,2019_Sep_01_1319,SST,3.0.7,60.408568524622126,
go,sst_images/Right_Arrow.bmp,None,2,785,None,0,121,121,121,,2,1,0.42508641799213365,go,0.2,0.785,1.7850000000000001,028,Scanner,R,2,2019_Sep_01_1319,SST,3.0.7,60.408568524622126,
go,sst_images/Left_Arrow.bmp,None,1,824,None,0,122,122,122,,1,1,0.4362046620226465,go,0.2,0.824,1.8239999999999998,028,Scanner,R,2,2019_Sep_01_1319,SST,3.0.7,60.408568524622126,
go,sst_images/Right_Arrow.bmp,None,2,1199,None,0,123,123,123,,2,1,0.3900028800126165,go,0.2,1.199,2.199,028,Scanner,R,2,2019_Sep_01_1319,SST,3.0.7,60.408568524622126,
go,sst_images/Left_Arrow.bmp,None,1,795,None,0,124,124,124,,1,1,0.4866837959853001,go,0.2,0.795,1.795,028,Scanner,R,2,2019_Sep_01_1319,SST,3.0.7,60.408568524622126,
go,sst_images/Right_Arrow.bmp,None,2,1280,None,0,125,125,125,,2,1,0.6873406919767149,go,0.2,1.28,2.2800000000000002,028,Scanner,R,2,2019_Sep_01_1319,SST,3.0.7,60.408568524622126,
go,sst_images/Right_Arrow.bmp,None,2,1050,None,0,126,126,126,,2,1,0.5378166100126691,go,0.2,1.05,2.05,028,Scanner,R,2,2019_Sep_01_1319,SST,3.0.7,60.408568524622126,
go,sst_images/Left_Arrow.bmp,None,1,963,None,0,127,127,127,,1,1,0.4229774510022253,go,0.2,0.963,1.963,028,Scanner,R,2,2019_Sep_01_1319,SST,3.0.7,60.408568524622126,
go,sst_images/Left_Arrow.bmp,None,1,933,None,0,128,128,128,,2,0,0.38670990499667823,go,0.2,0.933,1.933,028,Scanner,R,2,2019_Sep_01_1319,SST,3.0.7,60.408568524622126,
stop,sst_images/Right_Arrow.bmp,sst_images/Stop_Arrow.bmp,none,827,None,0,129,129,129,,2,0,0.3549984479905106,stop,0.15000000000000002,0.827,1.9720015520094893,028,Scanner,R,2,2019_Sep_01_1319,SST,3.0.7,60.408568524622126,
go,sst_images/Left_Arrow.bmp,None,1,1155,None,0,130,130,130,,1,1,0.4363279929966666,go,0.15000000000000002,1.155,2.1550000000000002,028,Scanner,R,2,2019_Sep_01_1319,SST,3.0.7,60.408568524622126,
go,sst_images/Right_Arrow.bmp,None,2,718,None,0,131,131,131,,2,1,0.4697062079794705,go,0.15000000000000002,0.718,1.718,028,Scanner,R,2,2019_Sep_01_1319,SST,3.0.7,60.408568524622126,
go,sst_images/Left_Arrow.bmp,None,1,759,None,0,132,132,132,,1,1,0.4709459340083413,go,0.15000000000000002,0.759,1.759,028,Scanner,R,2,2019_Sep_01_1319,SST,3.0.7,60.408568524622126,
go,sst_images/Left_Arrow.bmp,None,1,964,None,0,133,133,133,,1,1,0.46839855797588825,go,0.15000000000000002,0.964,1.964,028,Scanner,R,2,2019_Sep_01_1319,SST,3.0.7,60.408568524622126,
go,sst_images/Left_Arrow.bmp,None,1,789,None,0,134,134,134,,1,1,0.5042350000003353,go,0.15000000000000002,0.789,1.7890000000000001,028,Scanner,R,2,2019_Sep_01_1319,SST,3.0.7,60.408568524622126,
go,sst_images/Right_Arrow.bmp,None,2,746,None,0,135,135,135,,2,1,0.6050547399790958,go,0.15000000000000002,0.746,1.746,028,Scanner,R,2,2019_Sep_01_1319,SST,3.0.7,60.408568524622126,
go,sst_images/Left_Arrow.bmp,None,1,980,None,0,136,136,136,,1,1,0.4703110380214639,go,0.15000000000000002,0.98,1.98,028,Scanner,R,2,2019_Sep_01_1319,SST,3.0.7,60.408568524622126,
stop,sst_images/Right_Arrow.bmp,sst_images/Stop_Arrow.bmp,none,770,None,0,137,137,137,,None,1,,stop,0.2,0.77,1.7699999999999998,028,Scanner,R,2,2019_Sep_01_1319,SST,3.0.7,60.408568524622126,
go,sst_images/Left_Arrow.bmp,None,1,757,None,0,138,138,138,,1,1,0.4378664980176836,go,0.2,0.757,1.7570000000000001,028,Scanner,R,2,2019_Sep_01_1319,SST,3.0.7,60.408568524622126,
go,sst_images/Right_Arrow.bmp,None,2,962,None,0,139,139,139,,2,1,0.5062834830023348,go,0.2,0.962,1.962,028,Scanner,R,2,2019_Sep_01_1319,SST,3.0.7,60.408568524622126,
go,sst_images/Right_Arrow.bmp,None,2,1171,None,0,140,140,140,,2,1,0.5230802050209604,go,0.2,1.171,2.1710000000000003,028,Scanner,R,2,2019_Sep_01_1319,SST,3.0.7,60.408568524622126,
go,sst_images/Left_Arrow.bmp,None,1,921,None,0,141,141,141,,1,1,0.6727326569962315,go,0.2,0.921,1.921,028,Scanner,R,2,2019_Sep_01_1319,SST,3.0.7,60.408568524622126,
go,sst_images/Right_Arrow.bmp,None,2,1107,None,0,142,142,142,,2,1,0.3882235559867695,go,0.2,1.107,2.107,028,Scanner,R,2,2019_Sep_01_1319,SST,3.0.7,60.408568524622126,
go,sst_images/Left_Arrow.bmp,None,1,773,None,0,143,143,143,,1,1,0.4398091900511645,go,0.2,0.773,1.7730000000000001,028,Scanner,R,2,2019_Sep_01_1319,SST,3.0.7,60.408568524622126,
go,sst_images/Left_Arrow.bmp,None,1,733,None,0,144,144,144,,1,1,0.5714117680327035,go,0.2,0.733,1.733,028,Scanner,R,2,2019_Sep_01_1319,SST,3.0.7,60.408568524622126,
go,sst_images/Right_Arrow.bmp,None,2,804,None,0,145,145,145,,2,1,0.38785869197454304,go,0.2,0.804,1.804,028,Scanner,R,2,2019_Sep_01_1319,SST,3.0.7,60.408568524622126,
go,sst_images/Left_Arrow.bmp,None,1,1203,None,0,146,146,146,,1,1,0.40441058698343113,go,0.2,1.203,2.2030000000000003,028,Scanner,R,2,2019_Sep_01_1319,SST,3.0.7,60.408568524622126,
go,sst_images/Right_Arrow.bmp,None,2,769,None,0,147,147,147,,2,1,0.420300944999326,go,0.2,0.769,1.7690000000000001,028,Scanner,R,2,2019_Sep_01_1319,SST,3.0.7,60.408568524622126,
go,sst_images/Left_Arrow.bmp,None,1,764,None,0,148,148,148,,1,1,0.7543191299773753,go,0.2,0.764,1.764,028,Scanner,R,2,2019_Sep_01_1319,SST,3.0.7,60.408568524622126,
go,sst_images/Right_Arrow.bmp,None,2,733,None,0,149,149,149,,2,1,0.5225546209840104,go,0.2,0.733,1.733,028,Scanner,R,2,2019_Sep_01_1319,SST,3.0.7,60.408568524622126,
stop,sst_images/Left_Arrow.bmp,sst_images/Stop_Arrow.bmp,none,888,None,0,150,150,150,,1,0,0.4181835009949282,stop,0.15000000000000002,0.888,1.9698164990050717,028,Scanner,R,2,2019_Sep_01_1319,SST,3.0.7,60.408568524622126,
go,sst_images/Right_Arrow.bmp,None,2,825,None,0,151,151,151,,2,1,0.372002646967303,go,0.15000000000000002,0.825,1.825,028,Scanner,R,2,2019_Sep_01_1319,SST,3.0.7,60.408568524622126,
go,sst_images/Left_Arrow.bmp,None,1,756,None,0,152,152,152,,1,1,0.4372654050239362,go,0.15000000000000002,0.756,1.756,028,Scanner,R,2,2019_Sep_01_1319,SST,3.0.7,60.408568524622126,
go,sst_images/Right_Arrow.bmp,None,2,1601,None,0,153,153,153,,2,1,0.4555392140173353,go,0.15000000000000002,1.601,2.601,028,Scanner,R,2,2019_Sep_01_1319,SST,3.0.7,60.408568524622126,
go,sst_images/Left_Arrow.bmp,None,1,980,None,0,154,154,154,,1,1,0.4702245950466022,go,0.15000000000000002,0.98,1.98,028,Scanner,R,2,2019_Sep_01_1319,SST,3.0.7,60.408568524622126,
go,sst_images/Right_Arrow.bmp,None,2,772,None,0,155,155,155,,2,1,0.3034813170088455,go,0.15000000000000002,0.772,1.772,028,Scanner,R,2,2019_Sep_01_1319,SST,3.0.7,60.408568524622126,
stop,sst_images/Left_Arrow.bmp,sst_images/Stop_Arrow.bmp,none,809,None,0,156,156,156,,1,0,0.35257225000532344,stop,0.10000000000000002,0.809,1.9064277499946767,028,Scanner,R,2,2019_Sep_01_1319,SST,3.0.7,60.408568524622126,
go,sst_images/Left_Arrow.bmp,None,1,756,None,0,157,157,157,,1,1,0.4850682219839655,go,0.10000000000000002,0.756,1.756,028,Scanner,R,2,2019_Sep_01_1319,SST,3.0.7,60.408568524622126,
go,sst_images/Right_Arrow.bmp,None,2,1377,None,0,158,158,158,,2,1,0.3044254509732127,go,0.10000000000000002,1.377,2.377,028,Scanner,R,2,2019_Sep_01_1319,SST,3.0.7,60.408568524622126,
go,sst_images/Left_Arrow.bmp,None,1,1233,None,0,159,159,159,,1,1,0.33791003201622516,go,0.10000000000000002,1.233,2.233,028,Scanner,R,2,2019_Sep_01_1319,SST,3.0.7,60.408568524622126,
go,sst_images/Left_Arrow.bmp,None,1,904,None,0,160,160,160,,1,1,0.5701799169764854,go,0.10000000000000002,0.904,1.904,028,Scanner,R,2,2019_Sep_01_1319,SST,3.0.7,60.408568524622126,
go,sst_images/Right_Arrow.bmp,None,2,1162,None,0,161,161,161,,2,1,0.3861900409683585,go,0.10000000000000002,1.162,2.162,028,Scanner,R,2,2019_Sep_01_1319,SST,3.0.7,60.408568524622126,
go,sst_images/Left_Arrow.bmp,None,1,1101,None,0,162,162,162,,1,1,0.41885533003369346,go,0.10000000000000002,1.101,2.101,028,Scanner,R,2,2019_Sep_01_1319,SST,3.0.7,60.408568524622126,
go,sst_images/Right_Arrow.bmp,None,2,829,None,0,163,163,163,,2,1,0.3705924220266752,go,0.10000000000000002,0.829,1.829,028,Scanner,R,2,2019_Sep_01_1319,SST,3.0.7,60.408568524622126,
go,sst_images/Right_Arrow.bmp,None,2,968,None,0,164,164,164,,2,1,0.618851165054366,go,0.10000000000000002,0.968,1.968,028,Scanner,R,2,2019_Sep_01_1319,SST,3.0.7,60.408568524622126,
go,sst_images/Right_Arrow.bmp,None,2,766,None,0,165,165,165,,2,1,0.5371449990198016,go,0.10000000000000002,0.766,1.766,028,Scanner,R,2,2019_Sep_01_1319,SST,3.0.7,60.408568524622126,
stop,sst_images/Left_Arrow.bmp,sst_images/Stop_Arrow.bmp,none,718,None,0,166,166,166,,None,1,,stop,0.15000000000000002,0.718,1.7180000000000002,028,Scanner,R,2,2019_Sep_01_1319,SST,3.0.7,60.408568524622126,
go,sst_images/Left_Arrow.bmp,None,1,742,None,0,167,167,167,,1,1,0.4011780869914219,go,0.15000000000000002,0.742,1.742,028,Scanner,R,2,2019_Sep_01_1319,SST,3.0.7,60.408568524622126,
go,sst_images/Right_Arrow.bmp,None,2,791,None,0,168,168,168,,2,1,0.47037164401263,go,0.15000000000000002,0.791,1.791,028,Scanner,R,2,2019_Sep_01_1319,SST,3.0.7,60.408568524622126,
go,sst_images/Right_Arrow.bmp,None,2,900,None,0,169,169,169,,2,1,0.6851604279945605,go,0.15000000000000002,0.9,1.9,028,Scanner,R,2,2019_Sep_01_1319,SST,3.0.7,60.408568524622126,
stop,sst_images/Right_Arrow.bmp,sst_images/Stop_Arrow.bmp,none,793,None,0,170,170,170,,None,1,,stop,0.2,0.793,1.793,028,Scanner,R,2,2019_Sep_01_1319,SST,3.0.7,60.408568524622126,
go,sst_images/Left_Arrow.bmp,None,1,891,None,0,171,171,171,,1,1,0.5204981230199337,go,0.2,0.891,1.891,028,Scanner,R,2,2019_Sep_01_1319,SST,3.0.7,60.408568524622126,
go,sst_images/Right_Arrow.bmp,None,2,872,None,0,172,172,172,,2,1,0.5546314410166815,go,0.2,0.872,1.8719999999999999,028,Scanner,R,2,2019_Sep_01_1319,SST,3.0.7,60.408568524622126,
go,sst_images/Right_Arrow.bmp,None,2,1521,None,0,173,173,173,,2,1,0.5006011039949954,go,0.2,1.521,2.521,028,Scanner,R,2,2019_Sep_01_1319,SST,3.0.7,60.408568524622126,
go,sst_images/Right_Arrow.bmp,None,2,911,None,0,174,174,174,,2,1,0.4874478749698028,go,0.2,0.911,1.911,028,Scanner,R,2,2019_Sep_01_1319,SST,3.0.7,60.408568524622126,
go,sst_images/Left_Arrow.bmp,None,1,766,None,0,175,175,175,,1,1,0.4880060540162958,go,0.2,0.766,1.766,028,Scanner,R,2,2019_Sep_01_1319,SST,3.0.7,60.408568524622126,
go,sst_images/Right_Arrow.bmp,None,2,721,None,0,176,176,176,,2,1,0.4858389580040239,go,0.2,0.721,1.721,028,Scanner,R,2,2019_Sep_01_1319,SST,3.0.7,60.408568524622126,
go,sst_images/Left_Arrow.bmp,None,1,838,None,0,177,177,177,,1,1,0.3504728419939056,go,0.2,0.838,1.838,028,Scanner,R,2,2019_Sep_01_1319,SST,3.0.7,60.408568524622126,
stop,sst_images/Left_Arrow.bmp,sst_images/Stop_Arrow.bmp,none,766,None,0,178,178,178,,None,1,,stop,0.25,0.766,1.766,028,Scanner,R,2,2019_Sep_01_1319,SST,3.0.7,60.408568524622126,
go,sst_images/Right_Arrow.bmp,None,2,780,7177.0,0,179,179,179,,2,1,0.5530360839911737,go,0.25,0.78,1.78,028,Scanner,R,2,2019_Sep_01_1319,SST,3.0.7,60.408568524622126,
