trial_type,arrow_1,arrow_2,corrAns,jitter,run_end_fixation,trials.thisRepN,trials.thisTrialN,trials.thisN,trials.thisIndex,randomized TrialOrder,key_response.keys,key_response.corr,key_response.rt,trial_t.routineEndVal,ss_delay,iti_duration,SOA,participant,prac_or_scan,handedness,run,date,expName,psychopyVersion,frameRate,
go,sst_images/Left_Arrow.bmp,None,1,1610,None,0,0,0,0,8,1,1,0.593902980996063,go,0.05,1.61,2.6100000000000003,031,Scanner,R,2,2019_Aug_29_1233,SST,3.0.7,23.99923409842431,
go,sst_images/Right_Arrow.bmp,None,2,966,None,0,1,1,1,,2,1,0.4232191570044961,go,0.05,0.966,1.966,031,Scanner,R,2,2019_Aug_29_1233,SST,3.0.7,23.99923409842431,
go,sst_images/Right_Arrow.bmp,None,2,954,None,0,2,2,2,,2,1,0.45693915299489163,go,0.05,0.954,1.954,031,Scanner,R,2,2019_Aug_29_1233,SST,3.0.7,23.99923409842431,
go,sst_images/Left_Arrow.bmp,None,1,840,None,0,3,3,3,,1,1,0.416312260000268,go,0.05,0.84,1.8399999999999999,031,Scanner,R,2,2019_Aug_29_1233,SST,3.0.7,23.99923409842431,
go,sst_images/Left_Arrow.bmp,None,1,829,None,0,4,4,4,,1,1,0.37784208098310046,go,0.05,0.829,1.829,031,Scanner,R,2,2019_Aug_29_1233,SST,3.0.7,23.99923409842431,
stop,sst_images/Right_Arrow.bmp,sst_images/Stop_Arrow.bmp,none,966,None,0,5,5,5,,None,1,,stop,0.1,0.966,1.966,031,Scanner,R,2,2019_Aug_29_1233,SST,3.0.7,23.99923409842431,
go,sst_images/Right_Arrow.bmp,None,2,785,None,0,6,6,6,,2,1,0.4637806149839889,go,0.1,0.785,1.7850000000000001,031,Scanner,R,2,2019_Aug_29_1233,SST,3.0.7,23.99923409842431,
go,sst_images/Left_Arrow.bmp,None,1,779,None,0,7,7,7,,1,1,0.457792305998737,go,0.1,0.779,1.779,031,Scanner,R,2,2019_Aug_29_1233,SST,3.0.7,23.99923409842431,
go,sst_images/Right_Arrow.bmp,None,2,741,None,0,8,8,8,,2,1,0.421404877997702,go,0.1,0.741,1.741,031,Scanner,R,2,2019_Aug_29_1233,SST,3.0.7,23.99923409842431,
stop,sst_images/Left_Arrow.bmp,sst_images/Stop_Arrow.bmp,none,769,None,0,9,9,9,,1,0,0.439661676005926,stop,0.05,0.769,1.7293383239940743,031,Scanner,R,2,2019_Aug_29_1233,SST,3.0.7,23.99923409842431,
go,sst_images/Right_Arrow.bmp,None,2,851,None,0,10,10,10,,2,1,0.6294132600014564,go,0.05,0.851,1.851,031,Scanner,R,2,2019_Aug_29_1233,SST,3.0.7,23.99923409842431,
go,sst_images/Left_Arrow.bmp,None,1,789,None,0,11,11,11,,1,1,0.5486874259950127,go,0.05,0.789,1.7890000000000001,031,Scanner,R,2,2019_Aug_29_1233,SST,3.0.7,23.99923409842431,
go,sst_images/Right_Arrow.bmp,None,2,729,None,0,12,12,12,,2,1,0.5878627130005043,go,0.05,0.729,1.729,031,Scanner,R,2,2019_Aug_29_1233,SST,3.0.7,23.99923409842431,
go,sst_images/Left_Arrow.bmp,None,1,976,None,0,13,13,13,,1,1,0.7561405699816532,go,0.05,0.976,1.976,031,Scanner,R,2,2019_Aug_29_1233,SST,3.0.7,23.99923409842431,
stop,sst_images/Left_Arrow.bmp,sst_images/Stop_Arrow.bmp,none,1252,None,0,14,14,14,,None,1,,stop,0.1,1.252,2.252,031,Scanner,R,2,2019_Aug_29_1233,SST,3.0.7,23.99923409842431,
go,sst_images/Left_Arrow.bmp,None,1,1060,None,0,15,15,15,,1,1,0.5014882710238453,go,0.1,1.06,2.06,031,Scanner,R,2,2019_Aug_29_1233,SST,3.0.7,23.99923409842431,
go,sst_images/Left_Arrow.bmp,None,1,1429,None,0,16,16,16,,1,1,0.4637951689946931,go,0.1,1.429,2.4290000000000003,031,Scanner,R,2,2019_Aug_29_1233,SST,3.0.7,23.99923409842431,
go,sst_images/Right_Arrow.bmp,None,2,747,None,0,17,17,17,,2,1,0.5025028139934875,go,0.1,0.747,1.7469999999999999,031,Scanner,R,2,2019_Aug_29_1233,SST,3.0.7,23.99923409842431,
go,sst_images/Left_Arrow.bmp,None,1,864,None,0,18,18,18,,1,1,0.503523210005369,go,0.1,0.864,1.8639999999999999,031,Scanner,R,2,2019_Aug_29_1233,SST,3.0.7,23.99923409842431,
go,sst_images/Left_Arrow.bmp,None,1,759,None,0,19,19,19,,1,1,0.46317906701005995,go,0.1,0.759,1.759,031,Scanner,R,2,2019_Aug_29_1233,SST,3.0.7,23.99923409842431,
stop,sst_images/Right_Arrow.bmp,sst_images/Stop_Arrow.bmp,none,803,None,0,20,20,20,,None,1,,stop,0.15000000000000002,0.803,1.8030000000000002,031,Scanner,R,2,2019_Aug_29_1233,SST,3.0.7,23.99923409842431,
go,sst_images/Right_Arrow.bmp,None,2,840,None,0,21,21,21,,2,1,0.5475995999877341,go,0.15000000000000002,0.84,1.8399999999999999,031,Scanner,R,2,2019_Aug_29_1233,SST,3.0.7,23.99923409842431,
go,sst_images/Left_Arrow.bmp,None,1,822,None,0,22,22,22,,1,1,0.506941817002371,go,0.15000000000000002,0.822,1.822,031,Scanner,R,2,2019_Aug_29_1233,SST,3.0.7,23.99923409842431,
go,sst_images/Right_Arrow.bmp,None,2,1040,None,0,23,23,23,,2,1,0.6709212739951909,go,0.15000000000000002,1.04,2.04,031,Scanner,R,2,2019_Aug_29_1233,SST,3.0.7,23.99923409842431,
go,sst_images/Left_Arrow.bmp,None,1,1049,None,0,24,24,24,,1,1,0.5842597330047283,go,0.15000000000000002,1.049,2.049,031,Scanner,R,2,2019_Aug_29_1233,SST,3.0.7,23.99923409842431,
go,sst_images/Right_Arrow.bmp,None,2,788,None,0,25,25,25,,2,1,0.5353001749899704,go,0.15000000000000002,0.788,1.788,031,Scanner,R,2,2019_Aug_29_1233,SST,3.0.7,23.99923409842431,
stop,sst_images/Right_Arrow.bmp,sst_images/Stop_Arrow.bmp,none,1152,None,0,26,26,26,,2,0,0.5206291849899571,stop,0.10000000000000002,1.152,2.0813708150100427,031,Scanner,R,2,2019_Aug_29_1233,SST,3.0.7,23.99923409842431,
go,sst_images/Right_Arrow.bmp,None,2,834,None,0,27,27,27,,2,1,0.5037846900231671,go,0.10000000000000002,0.834,1.834,031,Scanner,R,2,2019_Aug_29_1233,SST,3.0.7,23.99923409842431,
go,sst_images/Left_Arrow.bmp,None,1,760,None,0,28,28,28,,1,1,0.45944647802389227,go,0.10000000000000002,0.76,1.76,031,Scanner,R,2,2019_Aug_29_1233,SST,3.0.7,23.99923409842431,
go,sst_images/Right_Arrow.bmp,None,2,748,None,0,29,29,29,,2,1,0.45457144899410196,go,0.10000000000000002,0.748,1.748,031,Scanner,R,2,2019_Aug_29_1233,SST,3.0.7,23.99923409842431,
go,sst_images/Right_Arrow.bmp,None,2,702,None,0,30,30,30,,2,1,0.5037977079919074,go,0.10000000000000002,0.702,1.702,031,Scanner,R,2,2019_Aug_29_1233,SST,3.0.7,23.99923409842431,
go,sst_images/Left_Arrow.bmp,None,1,724,None,0,31,31,31,,1,1,0.5820093610091135,go,0.10000000000000002,0.724,1.724,031,Scanner,R,2,2019_Aug_29_1233,SST,3.0.7,23.99923409842431,
stop,sst_images/Left_Arrow.bmp,sst_images/Stop_Arrow.bmp,none,740,None,0,32,32,32,,None,1,,stop,0.15000000000000002,0.74,1.74,031,Scanner,R,2,2019_Aug_29_1233,SST,3.0.7,23.99923409842431,
go,sst_images/Right_Arrow.bmp,None,2,815,None,0,33,33,33,,2,1,0.4233114200178534,go,0.15000000000000002,0.815,1.815,031,Scanner,R,2,2019_Aug_29_1233,SST,3.0.7,23.99923409842431,
go,sst_images/Left_Arrow.bmp,None,1,864,None,0,34,34,34,,1,1,0.5030488900083583,go,0.15000000000000002,0.864,1.8639999999999999,031,Scanner,R,2,2019_Aug_29_1233,SST,3.0.7,23.99923409842431,
go,sst_images/Left_Arrow.bmp,None,1,1051,None,0,35,35,35,,1,1,0.5918517440150026,go,0.15000000000000002,1.051,2.051,031,Scanner,R,2,2019_Aug_29_1233,SST,3.0.7,23.99923409842431,
go,sst_images/Right_Arrow.bmp,None,2,808,None,0,36,36,36,,2,1,0.5443483980197925,go,0.15000000000000002,0.808,1.808,031,Scanner,R,2,2019_Aug_29_1233,SST,3.0.7,23.99923409842431,
go,sst_images/Right_Arrow.bmp,None,2,746,None,0,37,37,37,,2,1,0.5419094990065787,go,0.15000000000000002,0.746,1.746,031,Scanner,R,2,2019_Aug_29_1233,SST,3.0.7,23.99923409842431,
go,sst_images/Left_Arrow.bmp,None,1,856,None,0,38,38,38,,1,1,0.49615320199518465,go,0.15000000000000002,0.856,1.8559999999999999,031,Scanner,R,2,2019_Aug_29_1233,SST,3.0.7,23.99923409842431,
stop,sst_images/Right_Arrow.bmp,sst_images/Stop_Arrow.bmp,none,973,None,0,39,39,39,,None,1,,stop,0.2,0.973,1.973,031,Scanner,R,2,2019_Aug_29_1233,SST,3.0.7,23.99923409842431,
go,sst_images/Left_Arrow.bmp,None,1,774,None,0,40,40,40,,1,1,0.4580837009998504,go,0.2,0.774,1.774,031,Scanner,R,2,2019_Aug_29_1233,SST,3.0.7,23.99923409842431,
go,sst_images/Right_Arrow.bmp,None,2,774,None,0,41,41,41,,2,1,0.5023189749917947,go,0.2,0.774,1.774,031,Scanner,R,2,2019_Aug_29_1233,SST,3.0.7,23.99923409842431,
stop,sst_images/Right_Arrow.bmp,sst_images/Stop_Arrow.bmp,none,713,None,0,42,42,42,,2,0,0.44144435098860413,stop,0.15000000000000002,0.713,1.771555649011396,031,Scanner,R,2,2019_Aug_29_1233,SST,3.0.7,23.99923409842431,
go,sst_images/Left_Arrow.bmp,None,1,710,None,0,43,43,43,,1,1,0.4622105259913951,go,0.15000000000000002,0.71,1.71,031,Scanner,R,2,2019_Aug_29_1233,SST,3.0.7,23.99923409842431,
go,sst_images/Left_Arrow.bmp,None,1,1123,None,0,44,44,44,,1,1,0.5448136529885232,go,0.15000000000000002,1.123,2.123,031,Scanner,R,2,2019_Aug_29_1233,SST,3.0.7,23.99923409842431,
stop,sst_images/Left_Arrow.bmp,sst_images/Stop_Arrow.bmp,none,857,None,0,45,45,45,,1,0,0.4813164849765599,stop,0.10000000000000002,0.857,1.8256835150234403,031,Scanner,R,2,2019_Aug_29_1233,SST,3.0.7,23.99923409842431,
go,sst_images/Right_Arrow.bmp,None,2,1169,None,0,46,46,46,,2,1,0.5429239970108029,go,0.10000000000000002,1.169,2.169,031,Scanner,R,2,2019_Aug_29_1233,SST,3.0.7,23.99923409842431,
go,sst_images/Right_Arrow.bmp,None,2,1378,None,0,47,47,47,,2,1,0.5456524769833777,go,0.10000000000000002,1.378,2.378,031,Scanner,R,2,2019_Aug_29_1233,SST,3.0.7,23.99923409842431,
go,sst_images/Right_Arrow.bmp,None,2,756,None,0,48,48,48,,2,1,0.7518549299857114,go,0.10000000000000002,0.756,1.756,031,Scanner,R,2,2019_Aug_29_1233,SST,3.0.7,23.99923409842431,
go,sst_images/Left_Arrow.bmp,None,1,752,None,0,49,49,49,,1,1,0.5033308849961031,go,0.10000000000000002,0.752,1.752,031,Scanner,R,2,2019_Aug_29_1233,SST,3.0.7,23.99923409842431,
go,sst_images/Left_Arrow.bmp,None,1,748,None,0,50,50,50,,1,1,0.7074152659915853,go,0.10000000000000002,0.748,1.748,031,Scanner,R,2,2019_Aug_29_1233,SST,3.0.7,23.99923409842431,
go,sst_images/Left_Arrow.bmp,None,1,706,None,0,51,51,51,,1,1,0.5449124729784671,go,0.10000000000000002,0.706,1.706,031,Scanner,R,2,2019_Aug_29_1233,SST,3.0.7,23.99923409842431,
go,sst_images/Right_Arrow.bmp,None,2,762,None,0,52,52,52,,2,1,0.5898405679909047,go,0.10000000000000002,0.762,1.762,031,Scanner,R,2,2019_Aug_29_1233,SST,3.0.7,23.99923409842431,
go,sst_images/Right_Arrow.bmp,None,2,773,None,0,53,53,53,,2,1,0.7115153890044894,go,0.10000000000000002,0.773,1.7730000000000001,031,Scanner,R,2,2019_Aug_29_1233,SST,3.0.7,23.99923409842431,
go,sst_images/Left_Arrow.bmp,None,1,1716,None,0,54,54,54,,1,1,0.6709959339932539,go,0.10000000000000002,1.716,2.716,031,Scanner,R,2,2019_Aug_29_1233,SST,3.0.7,23.99923409842431,
go,sst_images/Left_Arrow.bmp,None,1,1099,None,0,55,55,55,,1,1,0.5895351670042146,go,0.10000000000000002,1.099,2.099,031,Scanner,R,2,2019_Aug_29_1233,SST,3.0.7,23.99923409842431,
go,sst_images/Left_Arrow.bmp,None,1,873,None,0,56,56,56,,1,1,0.5439821759937331,go,0.10000000000000002,0.873,1.873,031,Scanner,R,2,2019_Aug_29_1233,SST,3.0.7,23.99923409842431,
go,sst_images/Right_Arrow.bmp,None,2,867,None,0,57,57,57,,1,0,0.6283363880065735,go,0.10000000000000002,0.867,1.867,031,Scanner,R,2,2019_Aug_29_1233,SST,3.0.7,23.99923409842431,
go,sst_images/Left_Arrow.bmp,None,1,861,None,0,58,58,58,,1,1,0.46028843300882727,go,0.10000000000000002,0.861,1.861,031,Scanner,R,2,2019_Aug_29_1233,SST,3.0.7,23.99923409842431,
go,sst_images/Left_Arrow.bmp,None,1,1127,None,0,59,59,59,,1,1,0.5453528039797675,go,0.10000000000000002,1.127,2.127,031,Scanner,R,2,2019_Aug_29_1233,SST,3.0.7,23.99923409842431,
go,sst_images/Right_Arrow.bmp,None,2,946,None,0,60,60,60,,2,1,0.4164452800177969,go,0.10000000000000002,0.946,1.946,031,Scanner,R,2,2019_Aug_29_1233,SST,3.0.7,23.99923409842431,
stop,sst_images/Right_Arrow.bmp,sst_images/Stop_Arrow.bmp,none,939,None,0,61,61,61,,None,1,,stop,0.15000000000000002,0.939,1.939,031,Scanner,R,2,2019_Aug_29_1233,SST,3.0.7,23.99923409842431,
go,sst_images/Right_Arrow.bmp,None,2,1242,None,0,62,62,62,,2,1,0.5858832870144397,go,0.15000000000000002,1.242,2.242,031,Scanner,R,2,2019_Aug_29_1233,SST,3.0.7,23.99923409842431,
go,sst_images/Left_Arrow.bmp,None,1,818,None,0,63,63,63,,1,1,0.5025098540063482,go,0.15000000000000002,0.818,1.818,031,Scanner,R,2,2019_Aug_29_1233,SST,3.0.7,23.99923409842431,
go,sst_images/Right_Arrow.bmp,None,2,805,None,0,64,64,64,,2,1,0.5058970139943995,go,0.15000000000000002,0.805,1.8050000000000002,031,Scanner,R,2,2019_Aug_29_1233,SST,3.0.7,23.99923409842431,
go,sst_images/Left_Arrow.bmp,None,1,836,None,0,65,65,65,,1,1,0.46130572000402026,go,0.15000000000000002,0.836,1.8359999999999999,031,Scanner,R,2,2019_Aug_29_1233,SST,3.0.7,23.99923409842431,
go,sst_images/Right_Arrow.bmp,None,2,724,None,0,66,66,66,,2,1,0.46240261098137125,go,0.15000000000000002,0.724,1.724,031,Scanner,R,2,2019_Aug_29_1233,SST,3.0.7,23.99923409842431,
go,sst_images/Right_Arrow.bmp,None,2,1107,None,0,67,67,67,,2,1,0.5437548939953558,go,0.15000000000000002,1.107,2.107,031,Scanner,R,2,2019_Aug_29_1233,SST,3.0.7,23.99923409842431,
stop,sst_images/Left_Arrow.bmp,sst_images/Stop_Arrow.bmp,none,779,None,0,68,68,68,,1,0,0.4609163490240462,stop,0.10000000000000002,0.779,1.7680836509759537,031,Scanner,R,2,2019_Aug_29_1233,SST,3.0.7,23.99923409842431,
go,sst_images/Left_Arrow.bmp,None,1,1063,None,0,69,69,69,,1,1,0.5045537619735114,go,0.10000000000000002,1.063,2.0629999999999997,031,Scanner,R,2,2019_Aug_29_1233,SST,3.0.7,23.99923409842431,
go,sst_images/Right_Arrow.bmp,None,2,771,None,0,70,70,70,,2,1,0.6291513440082781,go,0.10000000000000002,0.771,1.771,031,Scanner,R,2,2019_Aug_29_1233,SST,3.0.7,23.99923409842431,
go,sst_images/Left_Arrow.bmp,None,1,838,None,0,71,71,71,,1,1,0.5014465629938059,go,0.10000000000000002,0.838,1.838,031,Scanner,R,2,2019_Aug_29_1233,SST,3.0.7,23.99923409842431,
go,sst_images/Right_Arrow.bmp,None,2,883,None,0,72,72,72,,2,1,0.5435344860015903,go,0.10000000000000002,0.883,1.883,031,Scanner,R,2,2019_Aug_29_1233,SST,3.0.7,23.99923409842431,
go,sst_images/Left_Arrow.bmp,None,1,872,None,0,73,73,73,,2,0,0.5473855460004415,go,0.10000000000000002,0.872,1.8719999999999999,031,Scanner,R,2,2019_Aug_29_1233,SST,3.0.7,23.99923409842431,
go,sst_images/Right_Arrow.bmp,None,2,947,None,0,74,74,74,,2,1,0.4639727490139194,go,0.10000000000000002,0.947,1.947,031,Scanner,R,2,2019_Aug_29_1233,SST,3.0.7,23.99923409842431,
stop,sst_images/Right_Arrow.bmp,sst_images/Stop_Arrow.bmp,none,864,None,0,75,75,75,,1,0,0.4078580700152088,stop,0.05000000000000002,0.864,1.8561419299847912,031,Scanner,R,2,2019_Aug_29_1233,SST,3.0.7,23.99923409842431,
go,sst_images/Right_Arrow.bmp,None,2,757,None,0,76,76,76,,2,1,0.6693149860075209,go,0.05000000000000002,0.757,1.7570000000000001,031,Scanner,R,2,2019_Aug_29_1233,SST,3.0.7,23.99923409842431,
go,sst_images/Left_Arrow.bmp,None,1,1543,None,0,77,77,77,,1,1,0.45894262701040134,go,0.05000000000000002,1.543,2.543,031,Scanner,R,2,2019_Aug_29_1233,SST,3.0.7,23.99923409842431,
stop,sst_images/Right_Arrow.bmp,sst_images/Stop_Arrow.bmp,none,773,None,0,78,78,78,,None,1,,stop,0.10000000000000002,0.773,1.7730000000000001,031,Scanner,R,2,2019_Aug_29_1233,SST,3.0.7,23.99923409842431,
go,sst_images/Left_Arrow.bmp,None,1,915,None,0,79,79,79,,1,1,0.5453402119746897,go,0.10000000000000002,0.915,1.915,031,Scanner,R,2,2019_Aug_29_1233,SST,3.0.7,23.99923409842431,
go,sst_images/Right_Arrow.bmp,None,2,710,None,0,80,80,80,,2,1,0.4646529170277063,go,0.10000000000000002,0.71,1.71,031,Scanner,R,2,2019_Aug_29_1233,SST,3.0.7,23.99923409842431,
go,sst_images/Right_Arrow.bmp,None,2,769,None,0,81,81,81,,2,1,0.5867120779876132,go,0.10000000000000002,0.769,1.7690000000000001,031,Scanner,R,2,2019_Aug_29_1233,SST,3.0.7,23.99923409842431,
stop,sst_images/Left_Arrow.bmp,sst_images/Stop_Arrow.bmp,none,950,None,0,82,82,82,,None,1,,stop,0.15000000000000002,0.95,1.95,031,Scanner,R,2,2019_Aug_29_1233,SST,3.0.7,23.99923409842431,
go,sst_images/Right_Arrow.bmp,None,2,1313,None,0,83,83,83,,1,0,0.4201986110128928,go,0.15000000000000002,1.313,2.3129999999999997,031,Scanner,R,2,2019_Aug_29_1233,SST,3.0.7,23.99923409842431,
go,sst_images/Left_Arrow.bmp,None,1,823,None,0,84,84,84,,1,1,0.5021443149889819,go,0.15000000000000002,0.823,1.823,031,Scanner,R,2,2019_Aug_29_1233,SST,3.0.7,23.99923409842431,
go,sst_images/Left_Arrow.bmp,None,1,1013,None,0,85,85,85,,1,1,0.6193027230037842,go,0.15000000000000002,1.013,2.013,031,Scanner,R,2,2019_Aug_29_1233,SST,3.0.7,23.99923409842431,
go,sst_images/Right_Arrow.bmp,None,2,954,None,0,86,86,86,,2,1,0.6297733630053699,go,0.15000000000000002,0.954,1.954,031,Scanner,R,2,2019_Aug_29_1233,SST,3.0.7,23.99923409842431,
go,sst_images/Left_Arrow.bmp,None,1,800,None,0,87,87,87,,1,1,0.5456775900092907,go,0.15000000000000002,0.8,1.8,031,Scanner,R,2,2019_Aug_29_1233,SST,3.0.7,23.99923409842431,
go,sst_images/Right_Arrow.bmp,None,2,953,None,0,88,88,88,,2,1,0.6706420209957287,go,0.15000000000000002,0.953,1.9529999999999998,031,Scanner,R,2,2019_Aug_29_1233,SST,3.0.7,23.99923409842431,
go,sst_images/Left_Arrow.bmp,None,1,746,None,0,89,89,89,,1,1,0.5863326890103053,go,0.15000000000000002,0.746,1.746,031,Scanner,R,2,2019_Aug_29_1233,SST,3.0.7,23.99923409842431,
stop,sst_images/Right_Arrow.bmp,sst_images/Stop_Arrow.bmp,none,973,None,0,90,90,90,,None,1,,stop,0.2,0.973,1.973,031,Scanner,R,2,2019_Aug_29_1233,SST,3.0.7,23.99923409842431,
go,sst_images/Right_Arrow.bmp,None,2,788,None,0,91,91,91,,2,1,0.6284777109976858,go,0.2,0.788,1.788,031,Scanner,R,2,2019_Aug_29_1233,SST,3.0.7,23.99923409842431,
go,sst_images/Left_Arrow.bmp,None,1,881,None,0,92,92,92,,1,1,0.754383316001622,go,0.2,0.881,1.881,031,Scanner,R,2,2019_Aug_29_1233,SST,3.0.7,23.99923409842431,
go,sst_images/Left_Arrow.bmp,None,1,717,None,0,93,93,93,,1,1,0.6293099050235469,go,0.2,0.717,1.717,031,Scanner,R,2,2019_Aug_29_1233,SST,3.0.7,23.99923409842431,
go,sst_images/Left_Arrow.bmp,None,1,876,None,0,94,94,94,,1,1,0.5037032020045444,go,0.2,0.876,1.876,031,Scanner,R,2,2019_Aug_29_1233,SST,3.0.7,23.99923409842431,
stop,sst_images/Right_Arrow.bmp,sst_images/Stop_Arrow.bmp,none,1124,None,0,95,95,95,,None,1,,stop,0.25,1.124,2.124,031,Scanner,R,2,2019_Aug_29_1233,SST,3.0.7,23.99923409842431,
go,sst_images/Right_Arrow.bmp,None,2,720,None,0,96,96,96,,2,1,0.5463821449957322,go,0.25,0.72,1.72,031,Scanner,R,2,2019_Aug_29_1233,SST,3.0.7,23.99923409842431,
go,sst_images/Left_Arrow.bmp,None,1,801,None,0,97,97,97,,1,1,0.4218242180068046,go,0.25,0.801,1.8010000000000002,031,Scanner,R,2,2019_Aug_29_1233,SST,3.0.7,23.99923409842431,
stop,sst_images/Left_Arrow.bmp,sst_images/Stop_Arrow.bmp,none,736,None,0,98,98,98,,1,0,0.49229543801629916,stop,0.2,0.736,1.7937045619837009,031,Scanner,R,2,2019_Aug_29_1233,SST,3.0.7,23.99923409842431,
go,sst_images/Right_Arrow.bmp,None,2,738,None,0,99,99,99,,2,1,0.545936487003928,go,0.2,0.738,1.738,031,Scanner,R,2,2019_Aug_29_1233,SST,3.0.7,23.99923409842431,
go,sst_images/Right_Arrow.bmp,None,2,871,None,0,100,100,100,,None,0,,go,0.2,0.871,1.871,031,Scanner,R,2,2019_Aug_29_1233,SST,3.0.7,23.99923409842431,
go,sst_images/Left_Arrow.bmp,None,1,709,None,0,101,101,101,,1,1,0.5020294649875723,go,0.2,0.709,1.709,031,Scanner,R,2,2019_Aug_29_1233,SST,3.0.7,23.99923409842431,
go,sst_images/Right_Arrow.bmp,None,2,728,None,0,102,102,102,,2,1,0.5030051470093895,go,0.2,0.728,1.728,031,Scanner,R,2,2019_Aug_29_1233,SST,3.0.7,23.99923409842431,
go,sst_images/Right_Arrow.bmp,None,2,1087,None,0,103,103,103,,2,1,0.5431921219860669,go,0.2,1.087,2.0869999999999997,031,Scanner,R,2,2019_Aug_29_1233,SST,3.0.7,23.99923409842431,
stop,sst_images/Left_Arrow.bmp,sst_images/Stop_Arrow.bmp,none,748,None,0,104,104,104,,1,0,0.4891334490093868,stop,0.15000000000000002,0.748,1.7588665509906132,031,Scanner,R,2,2019_Aug_29_1233,SST,3.0.7,23.99923409842431,
go,sst_images/Left_Arrow.bmp,None,1,777,None,0,105,105,105,,1,1,0.5855500409961678,go,0.15000000000000002,0.777,1.7770000000000001,031,Scanner,R,2,2019_Aug_29_1233,SST,3.0.7,23.99923409842431,
go,sst_images/Left_Arrow.bmp,None,1,903,None,0,106,106,106,,1,1,0.6275793399836402,go,0.15000000000000002,0.903,1.903,031,Scanner,R,2,2019_Aug_29_1233,SST,3.0.7,23.99923409842431,
go,sst_images/Right_Arrow.bmp,None,2,714,None,0,107,107,107,,2,1,0.6290778319817036,go,0.15000000000000002,0.714,1.714,031,Scanner,R,2,2019_Aug_29_1233,SST,3.0.7,23.99923409842431,
go,sst_images/Right_Arrow.bmp,None,2,727,None,0,108,108,108,,2,1,0.83378883000114,go,0.15000000000000002,0.727,1.7269999999999999,031,Scanner,R,2,2019_Aug_29_1233,SST,3.0.7,23.99923409842431,
go,sst_images/Left_Arrow.bmp,None,1,840,None,0,109,109,109,,1,1,0.5860745210084133,go,0.15000000000000002,0.84,1.8399999999999999,031,Scanner,R,2,2019_Aug_29_1233,SST,3.0.7,23.99923409842431,
stop,sst_images/Right_Arrow.bmp,sst_images/Stop_Arrow.bmp,none,876,None,0,110,110,110,,2,0,0.4440719239937607,stop,0.10000000000000002,0.876,1.8819280760062391,031,Scanner,R,2,2019_Aug_29_1233,SST,3.0.7,23.99923409842431,
go,sst_images/Right_Arrow.bmp,None,2,1152,None,0,111,111,111,,2,1,0.7522527160181198,go,0.10000000000000002,1.152,2.152,031,Scanner,R,2,2019_Aug_29_1233,SST,3.0.7,23.99923409842431,
go,sst_images/Left_Arrow.bmp,None,1,874,None,0,112,112,112,,1,1,0.5013476239982992,go,0.10000000000000002,0.874,1.874,031,Scanner,R,2,2019_Aug_29_1233,SST,3.0.7,23.99923409842431,
go,sst_images/Right_Arrow.bmp,None,2,1413,None,0,113,113,113,,2,1,0.711224997008685,go,0.10000000000000002,1.413,2.4130000000000003,031,Scanner,R,2,2019_Aug_29_1233,SST,3.0.7,23.99923409842431,
go,sst_images/Left_Arrow.bmp,None,1,755,None,0,114,114,114,,1,1,0.503841084020678,go,0.10000000000000002,0.755,1.755,031,Scanner,R,2,2019_Aug_29_1233,SST,3.0.7,23.99923409842431,
go,sst_images/Right_Arrow.bmp,None,2,787,None,0,115,115,115,,2,1,0.5043371049978305,go,0.10000000000000002,0.787,1.787,031,Scanner,R,2,2019_Aug_29_1233,SST,3.0.7,23.99923409842431,
stop,sst_images/Left_Arrow.bmp,sst_images/Stop_Arrow.bmp,none,805,None,0,116,116,116,,None,1,,stop,0.15000000000000002,0.805,1.8050000000000002,031,Scanner,R,2,2019_Aug_29_1233,SST,3.0.7,23.99923409842431,
go,sst_images/Left_Arrow.bmp,None,1,719,None,0,117,117,117,,1,1,0.5882092399988323,go,0.15000000000000002,0.719,1.7189999999999999,031,Scanner,R,2,2019_Aug_29_1233,SST,3.0.7,23.99923409842431,
go,sst_images/Right_Arrow.bmp,None,2,764,None,0,118,118,118,,2,1,0.5448890480038244,go,0.15000000000000002,0.764,1.764,031,Scanner,R,2,2019_Aug_29_1233,SST,3.0.7,23.99923409842431,
stop,sst_images/Left_Arrow.bmp,sst_images/Stop_Arrow.bmp,none,1128,None,0,119,119,119,,1,0,0.4769662980106659,stop,0.10000000000000002,1.128,2.101033701989334,031,Scanner,R,2,2019_Aug_29_1233,SST,3.0.7,23.99923409842431,
go,sst_images/Left_Arrow.bmp,None,1,1050,None,0,120,120,120,,1,1,0.4978385889844503,go,0.10000000000000002,1.05,2.05,031,Scanner,R,2,2019_Aug_29_1233,SST,3.0.7,23.99923409842431,
go,sst_images/Right_Arrow.bmp,None,2,833,None,0,121,121,121,,2,1,0.5041971970058512,go,0.10000000000000002,0.833,1.833,031,Scanner,R,2,2019_Aug_29_1233,SST,3.0.7,23.99923409842431,
go,sst_images/Left_Arrow.bmp,None,1,879,None,0,122,122,122,,1,1,0.48567155899945647,go,0.10000000000000002,0.879,1.879,031,Scanner,R,2,2019_Aug_29_1233,SST,3.0.7,23.99923409842431,
stop,sst_images/Right_Arrow.bmp,sst_images/Stop_Arrow.bmp,none,885,None,0,123,123,123,,2,0,0.44586488997447304,stop,0.05000000000000002,0.885,1.839135110025527,031,Scanner,R,2,2019_Aug_29_1233,SST,3.0.7,23.99923409842431,
go,sst_images/Right_Arrow.bmp,None,2,739,None,0,124,124,124,,1,0,0.5447886309993919,go,0.05000000000000002,0.739,1.7389999999999999,031,Scanner,R,2,2019_Aug_29_1233,SST,3.0.7,23.99923409842431,
go,sst_images/Right_Arrow.bmp,None,2,1033,None,0,125,125,125,,2,1,0.5390735670225695,go,0.05000000000000002,1.033,2.033,031,Scanner,R,2,2019_Aug_29_1233,SST,3.0.7,23.99923409842431,
go,sst_images/Left_Arrow.bmp,None,1,1252,None,0,126,126,126,,1,1,0.5618822069955058,go,0.05000000000000002,1.252,2.252,031,Scanner,R,2,2019_Aug_29_1233,SST,3.0.7,23.99923409842431,
go,sst_images/Left_Arrow.bmp,None,1,1294,None,0,127,127,127,,1,1,0.5034145970130339,go,0.05000000000000002,1.294,2.294,031,Scanner,R,2,2019_Aug_29_1233,SST,3.0.7,23.99923409842431,
go,sst_images/Left_Arrow.bmp,None,1,988,None,0,128,128,128,,1,1,0.5437058770039584,go,0.05000000000000002,0.988,1.988,031,Scanner,R,2,2019_Aug_29_1233,SST,3.0.7,23.99923409842431,
go,sst_images/Right_Arrow.bmp,None,2,768,None,0,129,129,129,,2,1,0.5368763429869432,go,0.05000000000000002,0.768,1.768,031,Scanner,R,2,2019_Aug_29_1233,SST,3.0.7,23.99923409842431,
stop,sst_images/Left_Arrow.bmp,sst_images/Stop_Arrow.bmp,none,757,None,0,130,130,130,,None,1,,stop,0.10000000000000002,0.757,1.7570000000000001,031,Scanner,R,2,2019_Aug_29_1233,SST,3.0.7,23.99923409842431,
go,sst_images/Left_Arrow.bmp,None,1,1128,None,0,131,131,131,,1,1,0.5457536019966938,go,0.10000000000000002,1.128,2.128,031,Scanner,R,2,2019_Aug_29_1233,SST,3.0.7,23.99923409842431,
go,sst_images/Left_Arrow.bmp,None,1,829,None,0,132,132,132,,1,1,0.503868402010994,go,0.10000000000000002,0.829,1.829,031,Scanner,R,2,2019_Aug_29_1233,SST,3.0.7,23.99923409842431,
go,sst_images/Left_Arrow.bmp,None,1,802,None,0,133,133,133,,1,1,0.668750866985647,go,0.10000000000000002,0.802,1.802,031,Scanner,R,2,2019_Aug_29_1233,SST,3.0.7,23.99923409842431,
go,sst_images/Right_Arrow.bmp,None,2,744,None,0,134,134,134,,None,0,,go,0.10000000000000002,0.744,1.744,031,Scanner,R,2,2019_Aug_29_1233,SST,3.0.7,23.99923409842431,
stop,sst_images/Right_Arrow.bmp,sst_images/Stop_Arrow.bmp,none,822,None,0,135,135,135,,None,1,,stop,0.15000000000000002,0.822,1.822,031,Scanner,R,2,2019_Aug_29_1233,SST,3.0.7,23.99923409842431,
go,sst_images/Left_Arrow.bmp,None,1,728,None,0,136,136,136,,1,1,0.46154196199495345,go,0.15000000000000002,0.728,1.728,031,Scanner,R,2,2019_Aug_29_1233,SST,3.0.7,23.99923409842431,
go,sst_images/Left_Arrow.bmp,None,1,772,None,0,137,137,137,,1,1,0.5363773749850225,go,0.15000000000000002,0.772,1.772,031,Scanner,R,2,2019_Aug_29_1233,SST,3.0.7,23.99923409842431,
go,sst_images/Right_Arrow.bmp,None,2,787,None,0,138,138,138,,2,1,0.45890919500379823,go,0.15000000000000002,0.787,1.787,031,Scanner,R,2,2019_Aug_29_1233,SST,3.0.7,23.99923409842431,
go,sst_images/Right_Arrow.bmp,None,2,788,None,0,139,139,139,,2,1,0.7367229259980377,go,0.15000000000000002,0.788,1.788,031,Scanner,R,2,2019_Aug_29_1233,SST,3.0.7,23.99923409842431,
go,sst_images/Left_Arrow.bmp,None,1,818,None,0,140,140,140,,1,1,0.46135569299804047,go,0.15000000000000002,0.818,1.818,031,Scanner,R,2,2019_Aug_29_1233,SST,3.0.7,23.99923409842431,
go,sst_images/Right_Arrow.bmp,None,2,1097,None,0,141,141,141,,2,1,0.4223933930043131,go,0.15000000000000002,1.097,2.097,031,Scanner,R,2,2019_Aug_29_1233,SST,3.0.7,23.99923409842431,
go,sst_images/Left_Arrow.bmp,None,1,797,None,0,142,142,142,,1,1,0.46484769400558434,go,0.15000000000000002,0.797,1.7970000000000002,031,Scanner,R,2,2019_Aug_29_1233,SST,3.0.7,23.99923409842431,
go,sst_images/Left_Arrow.bmp,None,1,950,None,0,143,143,143,,1,1,0.542160660988884,go,0.15000000000000002,0.95,1.95,031,Scanner,R,2,2019_Aug_29_1233,SST,3.0.7,23.99923409842431,
go,sst_images/Right_Arrow.bmp,None,2,857,None,0,144,144,144,,2,1,0.4642592509917449,go,0.15000000000000002,0.857,1.857,031,Scanner,R,2,2019_Aug_29_1233,SST,3.0.7,23.99923409842431,
go,sst_images/Left_Arrow.bmp,None,1,777,None,0,145,145,145,,1,1,0.4571776800148655,go,0.15000000000000002,0.777,1.7770000000000001,031,Scanner,R,2,2019_Aug_29_1233,SST,3.0.7,23.99923409842431,
stop,sst_images/Right_Arrow.bmp,sst_images/Stop_Arrow.bmp,none,1051,None,0,146,146,146,,2,0,0.3657587140041869,stop,0.10000000000000002,1.051,2.135241285995813,031,Scanner,R,2,2019_Aug_29_1233,SST,3.0.7,23.99923409842431,
go,sst_images/Right_Arrow.bmp,None,2,801,None,0,147,147,147,,1,0,0.4196033420157619,go,0.10000000000000002,0.801,1.8010000000000002,031,Scanner,R,2,2019_Aug_29_1233,SST,3.0.7,23.99923409842431,
go,sst_images/Left_Arrow.bmp,None,1,803,None,0,148,148,148,,1,1,0.46186770699569024,go,0.10000000000000002,0.803,1.803,031,Scanner,R,2,2019_Aug_29_1233,SST,3.0.7,23.99923409842431,
go,sst_images/Right_Arrow.bmp,None,2,741,None,0,149,149,149,,2,1,0.4187701780174393,go,0.10000000000000002,0.741,1.741,031,Scanner,R,2,2019_Aug_29_1233,SST,3.0.7,23.99923409842431,
go,sst_images/Right_Arrow.bmp,None,2,865,None,0,150,150,150,,2,1,0.5441798550018575,go,0.10000000000000002,0.865,1.865,031,Scanner,R,2,2019_Aug_29_1233,SST,3.0.7,23.99923409842431,
stop,sst_images/Left_Arrow.bmp,sst_images/Stop_Arrow.bmp,none,1040,None,0,151,151,151,,1,0,0.4431060979841277,stop,0.05000000000000002,1.04,1.9968939020158725,031,Scanner,R,2,2019_Aug_29_1233,SST,3.0.7,23.99923409842431,
go,sst_images/Left_Arrow.bmp,None,1,869,None,0,152,152,152,,1,1,0.46123735400033183,go,0.05000000000000002,0.869,1.869,031,Scanner,R,2,2019_Aug_29_1233,SST,3.0.7,23.99923409842431,
go,sst_images/Right_Arrow.bmp,None,2,818,None,0,153,153,153,,1,0,0.54411847301526,go,0.05000000000000002,0.818,1.818,031,Scanner,R,2,2019_Aug_29_1233,SST,3.0.7,23.99923409842431,
go,sst_images/Left_Arrow.bmp,None,1,1189,None,0,154,154,154,,1,1,0.5037253059854265,go,0.05000000000000002,1.189,2.189,031,Scanner,R,2,2019_Aug_29_1233,SST,3.0.7,23.99923409842431,
go,sst_images/Right_Arrow.bmp,None,2,1204,None,0,155,155,155,,1,0,0.5456266330147628,go,0.05000000000000002,1.204,2.2039999999999997,031,Scanner,R,2,2019_Aug_29_1233,SST,3.0.7,23.99923409842431,
stop,sst_images/Left_Arrow.bmp,sst_images/Stop_Arrow.bmp,none,1100,None,0,156,156,156,,None,1,,stop,0.10000000000000002,1.1,2.1,031,Scanner,R,2,2019_Aug_29_1233,SST,3.0.7,23.99923409842431,
go,sst_images/Left_Arrow.bmp,None,1,713,None,0,157,157,157,,1,1,0.5458317539887503,go,0.10000000000000002,0.713,1.713,031,Scanner,R,2,2019_Aug_29_1233,SST,3.0.7,23.99923409842431,
go,sst_images/Right_Arrow.bmp,None,2,843,None,0,158,158,158,,2,1,0.5881735729926731,go,0.10000000000000002,0.843,1.843,031,Scanner,R,2,2019_Aug_29_1233,SST,3.0.7,23.99923409842431,
go,sst_images/Left_Arrow.bmp,None,1,742,None,0,159,159,159,,1,1,0.46130892701330595,go,0.10000000000000002,0.742,1.742,031,Scanner,R,2,2019_Aug_29_1233,SST,3.0.7,23.99923409842431,
go,sst_images/Left_Arrow.bmp,None,1,1059,None,0,160,160,160,,1,1,0.5023612200166099,go,0.10000000000000002,1.059,2.059,031,Scanner,R,2,2019_Aug_29_1233,SST,3.0.7,23.99923409842431,
go,sst_images/Right_Arrow.bmp,None,2,1617,None,0,161,161,161,,2,1,0.5055906789784785,go,0.10000000000000002,1.617,2.617,031,Scanner,R,2,2019_Aug_29_1233,SST,3.0.7,23.99923409842431,
go,sst_images/Left_Arrow.bmp,None,1,924,None,0,162,162,162,,1,1,0.5866867049771827,go,0.10000000000000002,0.924,1.924,031,Scanner,R,2,2019_Aug_29_1233,SST,3.0.7,23.99923409842431,
go,sst_images/Right_Arrow.bmp,None,2,736,None,0,163,163,163,,2,1,0.4623843070003204,go,0.10000000000000002,0.736,1.736,031,Scanner,R,2,2019_Aug_29_1233,SST,3.0.7,23.99923409842431,
go,sst_images/Right_Arrow.bmp,None,2,984,None,0,164,164,164,,2,1,0.7492927669954952,go,0.10000000000000002,0.984,1.984,031,Scanner,R,2,2019_Aug_29_1233,SST,3.0.7,23.99923409842431,
stop,sst_images/Left_Arrow.bmp,sst_images/Stop_Arrow.bmp,none,864,None,0,165,165,165,,1,0,0.46353180301957764,stop,0.05000000000000002,0.864,1.8004681969804224,031,Scanner,R,2,2019_Aug_29_1233,SST,3.0.7,23.99923409842431,
go,sst_images/Right_Arrow.bmp,None,2,815,None,0,166,166,166,,2,1,0.5293370709987357,go,0.05000000000000002,0.815,1.815,031,Scanner,R,2,2019_Aug_29_1233,SST,3.0.7,23.99923409842431,
go,sst_images/Left_Arrow.bmp,None,1,762,None,0,167,167,167,,1,1,0.42028440098511055,go,0.05000000000000002,0.762,1.762,031,Scanner,R,2,2019_Aug_29_1233,SST,3.0.7,23.99923409842431,
go,sst_images/Right_Arrow.bmp,None,2,885,None,0,168,168,168,,2,1,0.46376121099456213,go,0.05000000000000002,0.885,1.885,031,Scanner,R,2,2019_Aug_29_1233,SST,3.0.7,23.99923409842431,
stop,sst_images/Right_Arrow.bmp,sst_images/Stop_Arrow.bmp,none,703,None,0,169,169,169,,None,1,,stop,0.10000000000000002,0.703,1.7029999999999998,031,Scanner,R,2,2019_Aug_29_1233,SST,3.0.7,23.99923409842431,
go,sst_images/Right_Arrow.bmp,None,2,841,None,0,170,170,170,,2,1,0.6287476380239241,go,0.10000000000000002,0.841,1.841,031,Scanner,R,2,2019_Aug_29_1233,SST,3.0.7,23.99923409842431,
go,sst_images/Left_Arrow.bmp,None,1,1124,None,0,171,171,171,,1,1,0.5440567909972742,go,0.10000000000000002,1.124,2.124,031,Scanner,R,2,2019_Aug_29_1233,SST,3.0.7,23.99923409842431,
go,sst_images/Right_Arrow.bmp,None,2,875,None,0,172,172,172,,2,1,0.5397432419995312,go,0.10000000000000002,0.875,1.875,031,Scanner,R,2,2019_Aug_29_1233,SST,3.0.7,23.99923409842431,
go,sst_images/Right_Arrow.bmp,None,2,803,None,0,173,173,173,,2,1,0.5421793360146694,go,0.10000000000000002,0.803,1.803,031,Scanner,R,2,2019_Aug_29_1233,SST,3.0.7,23.99923409842431,
go,sst_images/Right_Arrow.bmp,None,2,726,None,0,174,174,174,,2,1,0.5465454160002992,go,0.10000000000000002,0.726,1.726,031,Scanner,R,2,2019_Aug_29_1233,SST,3.0.7,23.99923409842431,
stop,sst_images/Left_Arrow.bmp,sst_images/Stop_Arrow.bmp,none,968,None,0,175,175,175,,None,1,,stop,0.15000000000000002,0.968,1.9680000000000002,031,Scanner,R,2,2019_Aug_29_1233,SST,3.0.7,23.99923409842431,
go,sst_images/Left_Arrow.bmp,None,1,1183,None,0,176,176,176,,1,1,0.5055349850154016,go,0.15000000000000002,1.183,2.183,031,Scanner,R,2,2019_Aug_29_1233,SST,3.0.7,23.99923409842431,
go,sst_images/Right_Arrow.bmp,None,2,1031,None,0,177,177,177,,2,1,0.6321365780022461,go,0.15000000000000002,1.031,2.0309999999999997,031,Scanner,R,2,2019_Aug_29_1233,SST,3.0.7,23.99923409842431,
go,sst_images/Left_Arrow.bmp,None,1,1034,None,0,178,178,178,,1,1,0.5472340070118662,go,0.15000000000000002,1.034,2.034,031,Scanner,R,2,2019_Aug_29_1233,SST,3.0.7,23.99923409842431,
go,sst_images/Right_Arrow.bmp,None,2,794,4787.0,0,179,179,179,,2,1,0.7533400079992134,go,0.15000000000000002,0.794,1.794,031,Scanner,R,2,2019_Aug_29_1233,SST,3.0.7,23.99923409842431,
