trial_type,arrow_1,corrAns,ss_delay,iti_duration,key_response.keys,key_response.corr,key_response.rt,SOA,run_fixation_duration,participant,trial_order,handedness
go,sst_images/Left_Arrow.bmp,1,0.05,0.713,1,1,0.6049871970026288,1.713,,031,sst_trial_order_8A.csv,R
go,sst_images/Right_Arrow.bmp,2,0.05,1.22,2,1,0.4216622789972462,2.2199999999999998,,031,sst_trial_order_8A.csv,R
go,sst_images/Right_Arrow.bmp,2,0.05,0.708,2,1,0.46029046500916593,1.708,,031,sst_trial_order_8A.csv,R
stop,sst_images/Right_Arrow.bmp,none,0.1,0.822,,1,[],1.822,,031,sst_trial_order_8A.csv,R
go,sst_images/Left_Arrow.bmp,1,0.1,0.973,1,1,0.4221518650010694,1.9729999999999999,,031,sst_trial_order_8A.csv,R
go,sst_images/Left_Arrow.bmp,1,0.1,0.727,1,1,0.4612912340089679,1.7269999999999999,,031,sst_trial_order_8A.csv,R
stop,sst_images/Left_Arrow.bmp,none,0.15000000000000002,0.776,,1,[],1.776,,031,sst_trial_order_8A.csv,R
go,sst_images/Right_Arrow.bmp,2,0.15000000000000002,0.722,2,1,0.4639238110103179,1.722,,031,sst_trial_order_8A.csv,R
go,sst_images/Left_Arrow.bmp,1,0.15000000000000002,0.71,1,1,0.46044678101316094,1.71,,031,sst_trial_order_8A.csv,R
go,sst_images/Right_Arrow.bmp,2,0.15000000000000002,0.996,2,1,0.4211636560212355,1.996,,031,sst_trial_order_8A.csv,R
stop,sst_images/Left_Arrow.bmp,none,0.10000000000000002,0.706,1,0,0.3994877650111448,1.7565122349888551,,031,sst_trial_order_8A.csv,R
go,sst_images/Right_Arrow.bmp,2,0.10000000000000002,1.454,2,1,0.4630465040099807,2.4539999999999997,,031,sst_trial_order_8A.csv,R
go,sst_images/Left_Arrow.bmp,1,0.10000000000000002,0.822,1,1,0.5034809860226233,1.822,,031,sst_trial_order_8A.csv,R
stop,sst_images/Right_Arrow.bmp,none,0.05000000000000002,1.148,2,0,0.4456541149993427,2.1023458850006573,,031,sst_trial_order_8A.csv,R
go,sst_images/Right_Arrow.bmp,2,0.05000000000000002,0.907,2,1,0.4611728219897486,1.907,,031,sst_trial_order_8A.csv,R
go,sst_images/Left_Arrow.bmp,1,0.05000000000000002,0.807,1,1,0.5019744989986066,1.807,,031,sst_trial_order_8A.csv,R
go,sst_images/Left_Arrow.bmp,1,0.05000000000000002,0.896,1,1,0.5443488509918097,1.896,,031,sst_trial_order_8A.csv,R
stop,sst_images/Right_Arrow.bmp,none,1.3877787807814457e-17,0.739,2,0,0.3628811569942627,1.7261188430057373,,031,sst_trial_order_8A.csv,R
go,sst_images/Left_Arrow.bmp,1,1.3877787807814457e-17,0.726,1,1,0.5034661889949348,1.726,,031,sst_trial_order_8A.csv,R
go,sst_images/Right_Arrow.bmp,2,1.3877787807814457e-17,1.306,2,1,0.45921402200474404,2.306,,031,sst_trial_order_8A.csv,R
go,sst_images/Left_Arrow.bmp,1,1.3877787807814457e-17,0.738,1,1,0.4208059090015013,1.738,,031,sst_trial_order_8A.csv,R
go,sst_images/Left_Arrow.bmp,1,1.3877787807814457e-17,1.524,2,0,0.4209177819720935,2.524,,031,sst_trial_order_8A.csv,R
go,sst_images/Right_Arrow.bmp,2,1.3877787807814457e-17,1.137,2,1,0.46039795700926334,2.137,,031,sst_trial_order_8A.csv,R
go,sst_images/Left_Arrow.bmp,1,1.3877787807814457e-17,0.718,1,1,0.3767234080005437,1.718,,031,sst_trial_order_8A.csv,R
stop,sst_images/Left_Arrow.bmp,none,0.05000000000000002,0.773,,1,[],1.773,,031,sst_trial_order_8A.csv,R
go,sst_images/Right_Arrow.bmp,2,0.05000000000000002,1.551,2,1,0.5887906519928947,2.551,,031,sst_trial_order_8A.csv,R
go,sst_images/Left_Arrow.bmp,1,0.05000000000000002,0.779,1,1,0.4591031269810628,1.779,,031,sst_trial_order_8A.csv,R
go,sst_images/Right_Arrow.bmp,2,0.05000000000000002,0.976,2,1,0.4215977530111559,1.976,,031,sst_trial_order_8A.csv,R
stop,sst_images/Right_Arrow.bmp,none,0.10000000000000002,0.935,,1,[],1.935,,031,sst_trial_order_8A.csv,R
go,sst_images/Right_Arrow.bmp,2,0.10000000000000002,0.94,2,1,0.46376336298999377,1.94,,031,sst_trial_order_8A.csv,R
go,sst_images/Left_Arrow.bmp,1,0.10000000000000002,0.94,1,1,0.4582918630039785,1.94,,031,sst_trial_order_8A.csv,R
stop,sst_images/Right_Arrow.bmp,none,0.15000000000000002,0.875,,1,[],1.8750000000000002,,031,sst_trial_order_8A.csv,R
go,sst_images/Right_Arrow.bmp,2,0.15000000000000002,0.798,2,1,0.46225215701269917,1.798,,031,sst_trial_order_8A.csv,R
stop,sst_images/Left_Arrow.bmp,none,0.10000000000000002,0.716,1,0,0.36395370098762214,1.802046299012378,,031,sst_trial_order_8A.csv,R
go,sst_images/Right_Arrow.bmp,2,0.10000000000000002,0.753,2,1,0.41829867201158777,1.7530000000000001,,031,sst_trial_order_8A.csv,R
go,sst_images/Left_Arrow.bmp,1,0.10000000000000002,1.126,1,1,0.4522337199887261,2.126,,031,sst_trial_order_8A.csv,R
go,sst_images/Right_Arrow.bmp,2,0.10000000000000002,0.914,2,1,0.37807338300626725,1.9140000000000001,,031,sst_trial_order_8A.csv,R
go,sst_images/Left_Arrow.bmp,1,0.10000000000000002,0.732,1,1,0.547415237990208,1.732,,031,sst_trial_order_8A.csv,R
stop,sst_images/Right_Arrow.bmp,none,0.15000000000000002,1.089,,1,[],2.089,,031,sst_trial_order_8A.csv,R
go,sst_images/Left_Arrow.bmp,1,0.15000000000000002,0.724,1,1,0.5877921390056144,1.724,,031,sst_trial_order_8A.csv,R
go,sst_images/Right_Arrow.bmp,2,0.15000000000000002,0.915,2,1,0.7104742170195095,1.915,,031,sst_trial_order_8A.csv,R
go,sst_images/Right_Arrow.bmp,2,0.15000000000000002,0.899,2,1,0.7921715260017663,1.899,,031,sst_trial_order_8A.csv,R
go,sst_images/Left_Arrow.bmp,1,0.15000000000000002,0.866,1,1,0.46274722399539314,1.866,,031,sst_trial_order_8A.csv,R
go,sst_images/Left_Arrow.bmp,1,0.15000000000000002,0.773,1,1,0.502356568002142,1.7730000000000001,,031,sst_trial_order_8A.csv,R
go,sst_images/Right_Arrow.bmp,2,0.15000000000000002,0.799,2,1,0.4613955410022754,1.799,,031,sst_trial_order_8A.csv,R
go,sst_images/Left_Arrow.bmp,1,0.15000000000000002,0.939,1,1,0.3776416160108056,1.939,,031,sst_trial_order_8A.csv,R
go,sst_images/Left_Arrow.bmp,1,0.15000000000000002,1.775,1,1,0.4618276869878173,2.775,,031,sst_trial_order_8A.csv,R
go,sst_images/Right_Arrow.bmp,2,0.15000000000000002,1.218,2,1,0.4201456310111098,2.218,,031,sst_trial_order_8A.csv,R
go,sst_images/Right_Arrow.bmp,2,0.15000000000000002,0.953,2,1,0.5442720869905315,1.9529999999999998,,031,sst_trial_order_8A.csv,R
go,sst_images/Right_Arrow.bmp,2,0.15000000000000002,1.322,1,0,0.46047387199359946,2.322,,031,sst_trial_order_8A.csv,R
go,sst_images/Left_Arrow.bmp,1,0.15000000000000002,1.904,1,1,0.4222969129914418,2.904,,031,sst_trial_order_8A.csv,R
go,sst_images/Left_Arrow.bmp,1,0.15000000000000002,0.936,1,1,0.5388867469737306,1.936,,031,sst_trial_order_8A.csv,R
go,sst_images/Left_Arrow.bmp,1,0.15000000000000002,0.771,1,1,0.5465319299837574,1.771,,031,sst_trial_order_8A.csv,R
go,sst_images/Right_Arrow.bmp,2,0.15000000000000002,0.944,2,1,0.45875607698690146,1.944,,031,sst_trial_order_8A.csv,R
go,sst_images/Right_Arrow.bmp,2,0.15000000000000002,0.935,2,1,0.5062906240054872,1.935,,031,sst_trial_order_8A.csv,R
stop,sst_images/Left_Arrow.bmp,none,0.2,0.725,,1,[],1.7249999999999999,,031,sst_trial_order_8A.csv,R
go,sst_images/Left_Arrow.bmp,1,0.2,0.721,1,1,0.6705641370208468,1.721,,031,sst_trial_order_8A.csv,R
go,sst_images/Left_Arrow.bmp,1,0.2,0.752,1,1,0.4499692350218538,1.752,,031,sst_trial_order_8A.csv,R
go,sst_images/Left_Arrow.bmp,1,0.2,0.91,1,1,0.5821523830236401,1.9100000000000001,,031,sst_trial_order_8A.csv,R
go,sst_images/Right_Arrow.bmp,2,0.2,0.813,2,1,0.4613221089821309,1.813,,031,sst_trial_order_8A.csv,R
go,sst_images/Left_Arrow.bmp,1,0.2,1.089,1,1,0.539768966002157,2.089,,031,sst_trial_order_8A.csv,R
go,sst_images/Left_Arrow.bmp,1,0.2,0.701,1,1,0.4617968210077379,1.701,,031,sst_trial_order_8A.csv,R
stop,sst_images/Right_Arrow.bmp,none,0.15000000000000002,0.738,2,0,0.481987076025689,1.756012923974311,,031,sst_trial_order_8A.csv,R
go,sst_images/Right_Arrow.bmp,2,0.15000000000000002,0.824,2,1,0.627073770010611,1.8239999999999998,,031,sst_trial_order_8A.csv,R
go,sst_images/Right_Arrow.bmp,2,0.15000000000000002,0.72,2,1,0.5338239950069692,1.72,,031,sst_trial_order_8A.csv,R
go,sst_images/Left_Arrow.bmp,1,0.15000000000000002,1.002,1,1,0.420940595009597,2.002,,031,sst_trial_order_8A.csv,R
go,sst_images/Right_Arrow.bmp,2,0.15000000000000002,0.878,2,1,0.3796796909882687,1.8780000000000001,,031,sst_trial_order_8A.csv,R
stop,sst_images/Right_Arrow.bmp,none,0.2,0.828,,1,[],1.828,,031,sst_trial_order_8A.csv,R
go,sst_images/Left_Arrow.bmp,1,0.2,0.78,1,1,0.37783732800744474,1.78,,031,sst_trial_order_8A.csv,R
go,sst_images/Right_Arrow.bmp,2,0.2,0.71,2,1,0.4556646489945706,1.71,,031,sst_trial_order_8A.csv,R
go,sst_images/Right_Arrow.bmp,2,0.2,0.85,2,1,0.6690244849887677,1.85,,031,sst_trial_order_8A.csv,R
go,sst_images/Left_Arrow.bmp,1,0.2,0.919,1,1,0.6297766999923624,1.919,,031,sst_trial_order_8A.csv,R
go,sst_images/Right_Arrow.bmp,2,0.2,1.527,2,1,0.5894013170036487,2.527,,031,sst_trial_order_8A.csv,R
go,sst_images/Left_Arrow.bmp,1,0.2,0.723,1,1,0.38105071798781864,1.7229999999999999,,031,sst_trial_order_8A.csv,R
go,sst_images/Right_Arrow.bmp,2,0.2,1.424,2,1,0.4638960970041808,2.424,,031,sst_trial_order_8A.csv,R
go,sst_images/Left_Arrow.bmp,1,0.2,1.126,1,1,0.5024288449785672,2.126,,031,sst_trial_order_8A.csv,R
go,sst_images/Right_Arrow.bmp,2,0.2,0.747,2,1,0.5042893859790638,1.7469999999999999,,031,sst_trial_order_8A.csv,R
go,sst_images/Right_Arrow.bmp,2,0.2,1.14,2,1,0.4931788849935401,2.1399999999999997,,031,sst_trial_order_8A.csv,R
go,sst_images/Left_Arrow.bmp,1,0.2,1.11,1,1,0.4214811169949826,2.1100000000000003,,031,sst_trial_order_8A.csv,R
go,sst_images/Left_Arrow.bmp,1,0.2,0.838,2,0,0.4211235450056847,1.838,,031,sst_trial_order_8A.csv,R
go,sst_images/Right_Arrow.bmp,2,0.2,0.823,2,1,0.5054869010054972,1.823,,031,sst_trial_order_8A.csv,R
stop,sst_images/Left_Arrow.bmp,none,0.15000000000000002,0.896,1,0,0.45353129401337355,1.9424687059866264,,031,sst_trial_order_8A.csv,R
go,sst_images/Right_Arrow.bmp,2,0.15000000000000002,0.776,2,1,0.41873958602081984,1.776,,031,sst_trial_order_8A.csv,R
go,sst_images/Right_Arrow.bmp,2,0.15000000000000002,0.899,2,1,0.5458554959914181,1.899,,031,sst_trial_order_8A.csv,R
go,sst_images/Left_Arrow.bmp,1,0.15000000000000002,0.725,1,1,0.504745265992824,1.725,,031,sst_trial_order_8A.csv,R
go,sst_images/Left_Arrow.bmp,1,0.15000000000000002,0.955,1,1,0.4214099209930282,1.955,,031,sst_trial_order_8A.csv,R
go,sst_images/Right_Arrow.bmp,2,0.15000000000000002,0.804,2,1,0.4615513850003481,1.804,,031,sst_trial_order_8A.csv,R
stop,sst_images/Right_Arrow.bmp,none,0.10000000000000002,0.708,2,0,0.49223205901216716,1.665767940987833,,031,sst_trial_order_8A.csv,R
go,sst_images/Left_Arrow.bmp,1,0.10000000000000002,0.775,1,1,0.418851900001755,1.775,,031,sst_trial_order_8A.csv,R
go,sst_images/Right_Arrow.bmp,2,0.10000000000000002,1.159,2,1,0.41976946298382245,2.159,,031,sst_trial_order_8A.csv,R
go,sst_images/Left_Arrow.bmp,1,0.10000000000000002,1.008,1,1,0.4618308199860621,2.008,,031,sst_trial_order_8A.csv,R
go,sst_images/Right_Arrow.bmp,2,0.10000000000000002,0.868,2,1,0.5465785179985687,1.8679999999999999,,031,sst_trial_order_8A.csv,R
stop,sst_images/Right_Arrow.bmp,none,0.15000000000000002,0.908,,1,[],1.9080000000000001,,031,sst_trial_order_8A.csv,R
go,sst_images/Left_Arrow.bmp,1,0.15000000000000002,0.726,1,1,0.5050226149905939,1.726,,031,sst_trial_order_8A.csv,R
go,sst_images/Left_Arrow.bmp,1,0.15000000000000002,1.339,1,1,0.504244240000844,2.339,,031,sst_trial_order_8A.csv,R
go,sst_images/Left_Arrow.bmp,1,0.15000000000000002,0.734,1,1,0.42292902900953777,1.734,,031,sst_trial_order_8A.csv,R
go,sst_images/Right_Arrow.bmp,2,0.15000000000000002,0.79,2,1,0.4638437630201224,1.79,,031,sst_trial_order_8A.csv,R
go,sst_images/Left_Arrow.bmp,1,0.15000000000000002,0.739,1,1,0.4182385610183701,1.7389999999999999,,031,sst_trial_order_8A.csv,R
go,sst_images/Right_Arrow.bmp,2,0.15000000000000002,1.021,2,1,0.3769741620053537,2.021,,031,sst_trial_order_8A.csv,R
stop,sst_images/Left_Arrow.bmp,none,0.10000000000000002,0.92,1,0,0.4601845709839836,1.9098154290160163,,031,sst_trial_order_8A.csv,R
go,sst_images/Right_Arrow.bmp,2,0.10000000000000002,0.81,2,1,0.5018278680217918,1.81,,031,sst_trial_order_8A.csv,R
go,sst_images/Left_Arrow.bmp,1,0.10000000000000002,0.841,1,1,0.4081759509863332,1.841,,031,sst_trial_order_8A.csv,R
go,sst_images/Right_Arrow.bmp,2,0.10000000000000002,0.715,2,1,0.37926207500277087,1.7149999999999999,,031,sst_trial_order_8A.csv,R
go,sst_images/Right_Arrow.bmp,2,0.10000000000000002,1.037,1,0,0.33481191599275917,2.037,,031,sst_trial_order_8A.csv,R
go,sst_images/Left_Arrow.bmp,1,0.10000000000000002,0.769,1,1,0.457310628000414,1.7690000000000001,,031,sst_trial_order_8A.csv,R
go,sst_images/Left_Arrow.bmp,1,0.10000000000000002,0.815,1,1,0.5021667440014426,1.815,,031,sst_trial_order_8A.csv,R
stop,sst_images/Left_Arrow.bmp,none,0.15000000000000002,1.672,,1,[],2.6719999999999997,,031,sst_trial_order_8A.csv,R
go,sst_images/Right_Arrow.bmp,2,0.15000000000000002,0.935,2,1,0.5062747079937253,1.935,,031,sst_trial_order_8A.csv,R
go,sst_images/Right_Arrow.bmp,2,0.15000000000000002,0.909,2,1,0.46214046198292635,1.909,,031,sst_trial_order_8A.csv,R
go,sst_images/Left_Arrow.bmp,1,0.15000000000000002,0.776,1,1,0.45973403900279664,1.776,,031,sst_trial_order_8A.csv,R
stop,sst_images/Right_Arrow.bmp,none,0.10000000000000002,0.842,2,0,0.39949896701727994,1.89250103298272,,031,sst_trial_order_8A.csv,R
go,sst_images/Right_Arrow.bmp,2,0.10000000000000002,0.994,2,1,0.5046155030140653,1.994,,031,sst_trial_order_8A.csv,R
go,sst_images/Left_Arrow.bmp,1,0.10000000000000002,0.755,1,1,0.4617824539891444,1.755,,031,sst_trial_order_8A.csv,R
go,sst_images/Right_Arrow.bmp,2,0.10000000000000002,0.796,2,1,0.5057113020156976,1.796,,031,sst_trial_order_8A.csv,R
stop,sst_images/Left_Arrow.bmp,none,0.15000000000000002,1.072,,1,[],2.072,,031,sst_trial_order_8A.csv,R
go,sst_images/Left_Arrow.bmp,1,0.15000000000000002,0.882,1,1,0.49712431302759796,1.8820000000000001,,031,sst_trial_order_8A.csv,R
go,sst_images/Right_Arrow.bmp,2,0.15000000000000002,1.214,2,1,0.4968159619893413,2.214,,031,sst_trial_order_8A.csv,R
go,sst_images/Left_Arrow.bmp,1,0.15000000000000002,0.937,1,1,0.4626982439949643,1.937,,031,sst_trial_order_8A.csv,R
stop,sst_images/Left_Arrow.bmp,none,0.10000000000000002,0.806,1,0,0.484374672989361,1.771625327010639,,031,sst_trial_order_8A.csv,R
go,sst_images/Right_Arrow.bmp,2,0.10000000000000002,0.825,2,1,0.46158040000591427,1.825,,031,sst_trial_order_8A.csv,R
go,sst_images/Left_Arrow.bmp,1,0.10000000000000002,0.704,1,1,0.5311962759878952,1.704,,031,sst_trial_order_8A.csv,R
go,sst_images/Right_Arrow.bmp,2,0.10000000000000002,1.672,2,1,0.4186021839850582,2.6719999999999997,,031,sst_trial_order_8A.csv,R
go,sst_images/Left_Arrow.bmp,1,0.10000000000000002,1.315,1,1,0.62689983000746,2.315,,031,sst_trial_order_8A.csv,R
stop,sst_images/Right_Arrow.bmp,none,0.15000000000000002,0.828,,1,[],1.828,,031,sst_trial_order_8A.csv,R
go,sst_images/Right_Arrow.bmp,2,0.15000000000000002,0.713,2,1,0.4611425479815807,1.713,,031,sst_trial_order_8A.csv,R
go,sst_images/Right_Arrow.bmp,2,0.15000000000000002,1.203,2,1,0.5405797800049186,2.2030000000000003,,031,sst_trial_order_8A.csv,R
go,sst_images/Left_Arrow.bmp,1,0.15000000000000002,0.806,1,1,0.5056248799955938,1.806,,031,sst_trial_order_8A.csv,R
go,sst_images/Left_Arrow.bmp,1,0.15000000000000002,0.969,1,1,0.5056674210063647,1.9689999999999999,,031,sst_trial_order_8A.csv,R
go,sst_images/Left_Arrow.bmp,1,0.15000000000000002,0.727,1,1,0.5461243099998683,1.7269999999999999,,031,sst_trial_order_8A.csv,R
go,sst_images/Right_Arrow.bmp,2,0.15000000000000002,0.95,2,1,0.546288312994875,1.95,,031,sst_trial_order_8A.csv,R
stop,sst_images/Left_Arrow.bmp,none,0.2,1.454,,1,[],2.4539999999999997,,031,sst_trial_order_8A.csv,R
go,sst_images/Left_Arrow.bmp,1,0.2,1.304,1,1,0.502735069982009,2.3040000000000003,,031,sst_trial_order_8A.csv,R
go,sst_images/Left_Arrow.bmp,1,0.2,0.739,1,1,0.5056694379891269,1.7389999999999999,,031,sst_trial_order_8A.csv,R
go,sst_images/Left_Arrow.bmp,1,0.2,0.712,1,1,0.5459958039864432,1.712,,031,sst_trial_order_8A.csv,R
go,sst_images/Right_Arrow.bmp,2,0.2,0.707,2,1,0.6310386609984562,1.7069999999999999,,031,sst_trial_order_8A.csv,R
go,sst_images/Left_Arrow.bmp,1,0.2,0.855,1,1,0.5060310520057101,1.855,,031,sst_trial_order_8A.csv,R
go,sst_images/Left_Arrow.bmp,1,0.2,0.823,1,1,0.3968243720009923,1.823,,031,sst_trial_order_8A.csv,R
go,sst_images/Right_Arrow.bmp,2,0.2,0.862,2,1,0.46273676099372096,1.862,,031,sst_trial_order_8A.csv,R
go,sst_images/Right_Arrow.bmp,2,0.2,0.791,2,1,0.5854427019949071,1.791,,031,sst_trial_order_8A.csv,R
go,sst_images/Left_Arrow.bmp,1,0.2,1.417,1,1,0.5449750160041731,2.417,,031,sst_trial_order_8A.csv,R
go,sst_images/Right_Arrow.bmp,2,0.2,0.777,2,1,0.5004062420048285,1.7770000000000001,,031,sst_trial_order_8A.csv,R
go,sst_images/Left_Arrow.bmp,1,0.2,0.703,1,1,0.4612634280056227,1.7029999999999998,,031,sst_trial_order_8A.csv,R
stop,sst_images/Right_Arrow.bmp,none,0.15000000000000002,0.955,2,0,0.4589116600109264,1.9960883399890736,,031,sst_trial_order_8A.csv,R
go,sst_images/Left_Arrow.bmp,1,0.15000000000000002,0.908,1,1,0.4864673519914504,1.908,,031,sst_trial_order_8A.csv,R
go,sst_images/Right_Arrow.bmp,2,0.15000000000000002,0.709,2,1,0.5046520020114258,1.709,,031,sst_trial_order_8A.csv,R
go,sst_images/Left_Arrow.bmp,1,0.15000000000000002,0.713,1,1,0.5838593280059285,1.713,,031,sst_trial_order_8A.csv,R
go,sst_images/Right_Arrow.bmp,2,0.15000000000000002,1.002,2,1,0.4531115209974814,2.002,,031,sst_trial_order_8A.csv,R
go,sst_images/Left_Arrow.bmp,1,0.15000000000000002,0.722,1,1,0.46252815501065925,1.722,,031,sst_trial_order_8A.csv,R
stop,sst_images/Right_Arrow.bmp,none,0.10000000000000002,0.708,2,0,0.44116069001029246,1.7168393099897077,,031,sst_trial_order_8A.csv,R
go,sst_images/Right_Arrow.bmp,2,0.10000000000000002,0.715,2,1,0.5044946570124011,1.7149999999999999,,031,sst_trial_order_8A.csv,R
go,sst_images/Right_Arrow.bmp,2,0.10000000000000002,0.75,2,1,0.49376958698849194,1.75,,031,sst_trial_order_8A.csv,R
go,sst_images/Left_Arrow.bmp,1,0.10000000000000002,1.148,1,1,0.46287456099526025,2.1479999999999997,,031,sst_trial_order_8A.csv,R
go,sst_images/Right_Arrow.bmp,2,0.10000000000000002,2.0,2,1,0.5078851010184735,3.0,,031,sst_trial_order_8A.csv,R
go,sst_images/Left_Arrow.bmp,1,0.10000000000000002,0.888,1,1,0.4608623640087899,1.888,,031,sst_trial_order_8A.csv,R
go,sst_images/Right_Arrow.bmp,2,0.10000000000000002,0.81,2,1,0.8789972410013434,1.81,,031,sst_trial_order_8A.csv,R
stop,sst_images/Left_Arrow.bmp,none,0.15000000000000002,0.796,,1,[],1.796,,031,sst_trial_order_8A.csv,R
go,sst_images/Left_Arrow.bmp,1,0.15000000000000002,0.828,1,1,0.7128967799944803,1.8279999999999998,,031,sst_trial_order_8A.csv,R
go,sst_images/Right_Arrow.bmp,2,0.15000000000000002,0.907,2,1,0.5029012320155744,1.907,,031,sst_trial_order_8A.csv,R
stop,sst_images/Left_Arrow.bmp,none,0.2,0.72,,1,[],1.72,,031,sst_trial_order_8A.csv,R
go,sst_images/Left_Arrow.bmp,1,0.2,0.721,1,1,0.6273949190217536,1.721,,031,sst_trial_order_8A.csv,R
go,sst_images/Left_Arrow.bmp,1,0.2,1.077,1,1,0.7541438059997745,2.077,,031,sst_trial_order_8A.csv,R
go,sst_images/Right_Arrow.bmp,2,0.2,1.003,2,1,0.5046711260220036,2.003,,031,sst_trial_order_8A.csv,R
go,sst_images/Left_Arrow.bmp,1,0.2,0.76,1,1,0.6272434770071413,1.76,,031,sst_trial_order_8A.csv,R
go,sst_images/Right_Arrow.bmp,2,0.2,0.74,2,1,0.46057842898881063,1.74,,031,sst_trial_order_8A.csv,R
go,sst_images/Right_Arrow.bmp,2,0.2,0.744,2,1,0.49953776597976685,1.744,,031,sst_trial_order_8A.csv,R
go,sst_images/Right_Arrow.bmp,2,0.2,1.134,2,1,0.4912397460138891,2.134,,031,sst_trial_order_8A.csv,R
go,sst_images/Left_Arrow.bmp,1,0.2,0.771,1,1,0.45884478400694206,1.771,,031,sst_trial_order_8A.csv,R
go,sst_images/Right_Arrow.bmp,2,0.2,0.73,2,1,0.3795749789860565,1.73,,031,sst_trial_order_8A.csv,R
stop,sst_images/Left_Arrow.bmp,none,0.15000000000000002,0.886,1,0,0.3972885240218602,1.98871147597814,,031,sst_trial_order_8A.csv,R
go,sst_images/Right_Arrow.bmp,2,0.15000000000000002,0.705,2,1,0.5070108640065882,1.705,,031,sst_trial_order_8A.csv,R
go,sst_images/Left_Arrow.bmp,1,0.15000000000000002,1.192,1,1,0.5048840859963093,2.192,,031,sst_trial_order_8A.csv,R
stop,sst_images/Right_Arrow.bmp,none,0.10000000000000002,1.064,2,0,0.482250027009286,2.031749972990714,,031,sst_trial_order_8A.csv,R
go,sst_images/Right_Arrow.bmp,2,0.10000000000000002,0.706,2,1,0.5460699379909784,1.706,,031,sst_trial_order_8A.csv,R
go,sst_images/Right_Arrow.bmp,2,0.10000000000000002,0.849,2,1,0.4200862110010348,1.849,,031,sst_trial_order_8A.csv,R
go,sst_images/Right_Arrow.bmp,2,0.10000000000000002,0.755,2,1,0.4926645160012413,1.755,,031,sst_trial_order_8A.csv,R
go,sst_images/Left_Arrow.bmp,1,0.10000000000000002,0.875,1,1,0.5020013710018247,1.875,,031,sst_trial_order_8A.csv,R
go,sst_images/Right_Arrow.bmp,2,0.10000000000000002,0.704,2,1,0.4601395610079635,1.704,,031,sst_trial_order_8A.csv,R
go,sst_images/Left_Arrow.bmp,1,0.10000000000000002,0.756,1,1,0.5447527310170699,1.756,,031,sst_trial_order_8A.csv,R
stop,sst_images/Left_Arrow.bmp,none,0.05000000000000002,1.032,1,0,0.46272361700539477,1.9692763829946054,,031,sst_trial_order_8A.csv,R
go,sst_images/Right_Arrow.bmp,2,0.05000000000000002,1.072,2,1,0.41149056001449935,2.072,,031,sst_trial_order_8A.csv,R
