trial_type,arrow_1,arrow_2,corrAns,jitter,run_end_fixation,trials.thisRepN,trials.thisTrialN,trials.thisN,trials.thisIndex,randomized TrialOrder,key_response.keys,key_response.corr,key_response.rt,trial_t.routineEndVal,ss_delay,iti_duration,SOA,participant,prac_or_scan,handedness,run,date,expName,psychopyVersion,frameRate,
go,sst_images/Left_Arrow.bmp,None,1,713,None,0,0,0,0,8,1,1,0.6049871970026288,go,0.05,0.713,1.713,031,Scanner,R,1,2019_Aug_29_1226,SST,3.0.7,24.01165471923784,
go,sst_images/Right_Arrow.bmp,None,2,1220,None,0,1,1,1,,2,1,0.4216622789972462,go,0.05,1.22,2.2199999999999998,031,Scanner,R,1,2019_Aug_29_1226,SST,3.0.7,24.01165471923784,
go,sst_images/Right_Arrow.bmp,None,2,708,None,0,2,2,2,,2,1,0.46029046500916593,go,0.05,0.708,1.708,031,Scanner,R,1,2019_Aug_29_1226,SST,3.0.7,24.01165471923784,
stop,sst_images/Right_Arrow.bmp,sst_images/Stop_Arrow.bmp,none,822,None,0,3,3,3,,None,1,,stop,0.1,0.822,1.822,031,Scanner,R,1,2019_Aug_29_1226,SST,3.0.7,24.01165471923784,
go,sst_images/Left_Arrow.bmp,None,1,973,None,0,4,4,4,,1,1,0.4221518650010694,go,0.1,0.973,1.9729999999999999,031,Scanner,R,1,2019_Aug_29_1226,SST,3.0.7,24.01165471923784,
go,sst_images/Left_Arrow.bmp,None,1,727,None,0,5,5,5,,1,1,0.4612912340089679,go,0.1,0.727,1.7269999999999999,031,Scanner,R,1,2019_Aug_29_1226,SST,3.0.7,24.01165471923784,
stop,sst_images/Left_Arrow.bmp,sst_images/Stop_Arrow.bmp,none,776,None,0,6,6,6,,None,1,,stop,0.15000000000000002,0.776,1.776,031,Scanner,R,1,2019_Aug_29_1226,SST,3.0.7,24.01165471923784,
go,sst_images/Right_Arrow.bmp,None,2,722,None,0,7,7,7,,2,1,0.4639238110103179,go,0.15000000000000002,0.722,1.722,031,Scanner,R,1,2019_Aug_29_1226,SST,3.0.7,24.01165471923784,
go,sst_images/Left_Arrow.bmp,None,1,710,None,0,8,8,8,,1,1,0.46044678101316094,go,0.15000000000000002,0.71,1.71,031,Scanner,R,1,2019_Aug_29_1226,SST,3.0.7,24.01165471923784,
go,sst_images/Right_Arrow.bmp,None,2,996,None,0,9,9,9,,2,1,0.4211636560212355,go,0.15000000000000002,0.996,1.996,031,Scanner,R,1,2019_Aug_29_1226,SST,3.0.7,24.01165471923784,
stop,sst_images/Left_Arrow.bmp,sst_images/Stop_Arrow.bmp,none,706,None,0,10,10,10,,1,0,0.3994877650111448,stop,0.10000000000000002,0.706,1.7565122349888551,031,Scanner,R,1,2019_Aug_29_1226,SST,3.0.7,24.01165471923784,
go,sst_images/Right_Arrow.bmp,None,2,1454,None,0,11,11,11,,2,1,0.4630465040099807,go,0.10000000000000002,1.454,2.4539999999999997,031,Scanner,R,1,2019_Aug_29_1226,SST,3.0.7,24.01165471923784,
go,sst_images/Left_Arrow.bmp,None,1,822,None,0,12,12,12,,1,1,0.5034809860226233,go,0.10000000000000002,0.822,1.822,031,Scanner,R,1,2019_Aug_29_1226,SST,3.0.7,24.01165471923784,
stop,sst_images/Right_Arrow.bmp,sst_images/Stop_Arrow.bmp,none,1148,None,0,13,13,13,,2,0,0.4456541149993427,stop,0.05000000000000002,1.148,2.1023458850006573,031,Scanner,R,1,2019_Aug_29_1226,SST,3.0.7,24.01165471923784,
go,sst_images/Right_Arrow.bmp,None,2,907,None,0,14,14,14,,2,1,0.4611728219897486,go,0.05000000000000002,0.907,1.907,031,Scanner,R,1,2019_Aug_29_1226,SST,3.0.7,24.01165471923784,
go,sst_images/Left_Arrow.bmp,None,1,807,None,0,15,15,15,,1,1,0.5019744989986066,go,0.05000000000000002,0.807,1.807,031,Scanner,R,1,2019_Aug_29_1226,SST,3.0.7,24.01165471923784,
go,sst_images/Left_Arrow.bmp,None,1,896,None,0,16,16,16,,1,1,0.5443488509918097,go,0.05000000000000002,0.896,1.896,031,Scanner,R,1,2019_Aug_29_1226,SST,3.0.7,24.01165471923784,
stop,sst_images/Right_Arrow.bmp,sst_images/Stop_Arrow.bmp,none,739,None,0,17,17,17,,2,0,0.3628811569942627,stop,1.3877787807814457e-17,0.739,1.7261188430057373,031,Scanner,R,1,2019_Aug_29_1226,SST,3.0.7,24.01165471923784,
go,sst_images/Left_Arrow.bmp,None,1,726,None,0,18,18,18,,1,1,0.5034661889949348,go,1.3877787807814457e-17,0.726,1.726,031,Scanner,R,1,2019_Aug_29_1226,SST,3.0.7,24.01165471923784,
go,sst_images/Right_Arrow.bmp,None,2,1306,None,0,19,19,19,,2,1,0.45921402200474404,go,1.3877787807814457e-17,1.306,2.306,031,Scanner,R,1,2019_Aug_29_1226,SST,3.0.7,24.01165471923784,
go,sst_images/Left_Arrow.bmp,None,1,738,None,0,20,20,20,,1,1,0.4208059090015013,go,1.3877787807814457e-17,0.738,1.738,031,Scanner,R,1,2019_Aug_29_1226,SST,3.0.7,24.01165471923784,
go,sst_images/Left_Arrow.bmp,None,1,1524,None,0,21,21,21,,2,0,0.4209177819720935,go,1.3877787807814457e-17,1.524,2.524,031,Scanner,R,1,2019_Aug_29_1226,SST,3.0.7,24.01165471923784,
go,sst_images/Right_Arrow.bmp,None,2,1137,None,0,22,22,22,,2,1,0.46039795700926334,go,1.3877787807814457e-17,1.137,2.137,031,Scanner,R,1,2019_Aug_29_1226,SST,3.0.7,24.01165471923784,
go,sst_images/Left_Arrow.bmp,None,1,718,None,0,23,23,23,,1,1,0.3767234080005437,go,1.3877787807814457e-17,0.718,1.718,031,Scanner,R,1,2019_Aug_29_1226,SST,3.0.7,24.01165471923784,
stop,sst_images/Left_Arrow.bmp,sst_images/Stop_Arrow.bmp,none,773,None,0,24,24,24,,None,1,,stop,0.05000000000000002,0.773,1.773,031,Scanner,R,1,2019_Aug_29_1226,SST,3.0.7,24.01165471923784,
go,sst_images/Right_Arrow.bmp,None,2,1551,None,0,25,25,25,,2,1,0.5887906519928947,go,0.05000000000000002,1.551,2.551,031,Scanner,R,1,2019_Aug_29_1226,SST,3.0.7,24.01165471923784,
go,sst_images/Left_Arrow.bmp,None,1,779,None,0,26,26,26,,1,1,0.4591031269810628,go,0.05000000000000002,0.779,1.779,031,Scanner,R,1,2019_Aug_29_1226,SST,3.0.7,24.01165471923784,
go,sst_images/Right_Arrow.bmp,None,2,976,None,0,27,27,27,,2,1,0.4215977530111559,go,0.05000000000000002,0.976,1.976,031,Scanner,R,1,2019_Aug_29_1226,SST,3.0.7,24.01165471923784,
stop,sst_images/Right_Arrow.bmp,sst_images/Stop_Arrow.bmp,none,935,None,0,28,28,28,,None,1,,stop,0.10000000000000002,0.935,1.935,031,Scanner,R,1,2019_Aug_29_1226,SST,3.0.7,24.01165471923784,
go,sst_images/Right_Arrow.bmp,None,2,940,None,0,29,29,29,,2,1,0.46376336298999377,go,0.10000000000000002,0.94,1.94,031,Scanner,R,1,2019_Aug_29_1226,SST,3.0.7,24.01165471923784,
go,sst_images/Left_Arrow.bmp,None,1,940,None,0,30,30,30,,1,1,0.4582918630039785,go,0.10000000000000002,0.94,1.94,031,Scanner,R,1,2019_Aug_29_1226,SST,3.0.7,24.01165471923784,
stop,sst_images/Right_Arrow.bmp,sst_images/Stop_Arrow.bmp,none,875,None,0,31,31,31,,None,1,,stop,0.15000000000000002,0.875,1.8750000000000002,031,Scanner,R,1,2019_Aug_29_1226,SST,3.0.7,24.01165471923784,
go,sst_images/Right_Arrow.bmp,None,2,798,None,0,32,32,32,,2,1,0.46225215701269917,go,0.15000000000000002,0.798,1.798,031,Scanner,R,1,2019_Aug_29_1226,SST,3.0.7,24.01165471923784,
stop,sst_images/Left_Arrow.bmp,sst_images/Stop_Arrow.bmp,none,716,None,0,33,33,33,,1,0,0.36395370098762214,stop,0.10000000000000002,0.716,1.802046299012378,031,Scanner,R,1,2019_Aug_29_1226,SST,3.0.7,24.01165471923784,
go,sst_images/Right_Arrow.bmp,None,2,753,None,0,34,34,34,,2,1,0.41829867201158777,go,0.10000000000000002,0.753,1.7530000000000001,031,Scanner,R,1,2019_Aug_29_1226,SST,3.0.7,24.01165471923784,
go,sst_images/Left_Arrow.bmp,None,1,1126,None,0,35,35,35,,1,1,0.4522337199887261,go,0.10000000000000002,1.126,2.126,031,Scanner,R,1,2019_Aug_29_1226,SST,3.0.7,24.01165471923784,
go,sst_images/Right_Arrow.bmp,None,2,914,None,0,36,36,36,,2,1,0.37807338300626725,go,0.10000000000000002,0.914,1.9140000000000001,031,Scanner,R,1,2019_Aug_29_1226,SST,3.0.7,24.01165471923784,
go,sst_images/Left_Arrow.bmp,None,1,732,None,0,37,37,37,,1,1,0.547415237990208,go,0.10000000000000002,0.732,1.732,031,Scanner,R,1,2019_Aug_29_1226,SST,3.0.7,24.01165471923784,
stop,sst_images/Right_Arrow.bmp,sst_images/Stop_Arrow.bmp,none,1089,None,0,38,38,38,,None,1,,stop,0.15000000000000002,1.089,2.089,031,Scanner,R,1,2019_Aug_29_1226,SST,3.0.7,24.01165471923784,
go,sst_images/Left_Arrow.bmp,None,1,724,None,0,39,39,39,,1,1,0.5877921390056144,go,0.15000000000000002,0.724,1.724,031,Scanner,R,1,2019_Aug_29_1226,SST,3.0.7,24.01165471923784,
go,sst_images/Right_Arrow.bmp,None,2,915,None,0,40,40,40,,2,1,0.7104742170195095,go,0.15000000000000002,0.915,1.915,031,Scanner,R,1,2019_Aug_29_1226,SST,3.0.7,24.01165471923784,
go,sst_images/Right_Arrow.bmp,None,2,899,None,0,41,41,41,,2,1,0.7921715260017663,go,0.15000000000000002,0.899,1.899,031,Scanner,R,1,2019_Aug_29_1226,SST,3.0.7,24.01165471923784,
go,sst_images/Left_Arrow.bmp,None,1,866,None,0,42,42,42,,1,1,0.46274722399539314,go,0.15000000000000002,0.866,1.866,031,Scanner,R,1,2019_Aug_29_1226,SST,3.0.7,24.01165471923784,
go,sst_images/Left_Arrow.bmp,None,1,773,None,0,43,43,43,,1,1,0.502356568002142,go,0.15000000000000002,0.773,1.7730000000000001,031,Scanner,R,1,2019_Aug_29_1226,SST,3.0.7,24.01165471923784,
go,sst_images/Right_Arrow.bmp,None,2,799,None,0,44,44,44,,2,1,0.4613955410022754,go,0.15000000000000002,0.799,1.799,031,Scanner,R,1,2019_Aug_29_1226,SST,3.0.7,24.01165471923784,
go,sst_images/Left_Arrow.bmp,None,1,939,None,0,45,45,45,,1,1,0.3776416160108056,go,0.15000000000000002,0.939,1.939,031,Scanner,R,1,2019_Aug_29_1226,SST,3.0.7,24.01165471923784,
go,sst_images/Left_Arrow.bmp,None,1,1775,None,0,46,46,46,,1,1,0.4618276869878173,go,0.15000000000000002,1.775,2.775,031,Scanner,R,1,2019_Aug_29_1226,SST,3.0.7,24.01165471923784,
go,sst_images/Right_Arrow.bmp,None,2,1218,None,0,47,47,47,,2,1,0.4201456310111098,go,0.15000000000000002,1.218,2.218,031,Scanner,R,1,2019_Aug_29_1226,SST,3.0.7,24.01165471923784,
go,sst_images/Right_Arrow.bmp,None,2,953,None,0,48,48,48,,2,1,0.5442720869905315,go,0.15000000000000002,0.953,1.9529999999999998,031,Scanner,R,1,2019_Aug_29_1226,SST,3.0.7,24.01165471923784,
go,sst_images/Right_Arrow.bmp,None,2,1322,None,0,49,49,49,,1,0,0.46047387199359946,go,0.15000000000000002,1.322,2.322,031,Scanner,R,1,2019_Aug_29_1226,SST,3.0.7,24.01165471923784,
go,sst_images/Left_Arrow.bmp,None,1,1904,None,0,50,50,50,,1,1,0.4222969129914418,go,0.15000000000000002,1.904,2.904,031,Scanner,R,1,2019_Aug_29_1226,SST,3.0.7,24.01165471923784,
go,sst_images/Left_Arrow.bmp,None,1,936,None,0,51,51,51,,1,1,0.5388867469737306,go,0.15000000000000002,0.936,1.936,031,Scanner,R,1,2019_Aug_29_1226,SST,3.0.7,24.01165471923784,
go,sst_images/Left_Arrow.bmp,None,1,771,None,0,52,52,52,,1,1,0.5465319299837574,go,0.15000000000000002,0.771,1.771,031,Scanner,R,1,2019_Aug_29_1226,SST,3.0.7,24.01165471923784,
go,sst_images/Right_Arrow.bmp,None,2,944,None,0,53,53,53,,2,1,0.45875607698690146,go,0.15000000000000002,0.944,1.944,031,Scanner,R,1,2019_Aug_29_1226,SST,3.0.7,24.01165471923784,
go,sst_images/Right_Arrow.bmp,None,2,935,None,0,54,54,54,,2,1,0.5062906240054872,go,0.15000000000000002,0.935,1.935,031,Scanner,R,1,2019_Aug_29_1226,SST,3.0.7,24.01165471923784,
stop,sst_images/Left_Arrow.bmp,sst_images/Stop_Arrow.bmp,none,725,None,0,55,55,55,,None,1,,stop,0.2,0.725,1.7249999999999999,031,Scanner,R,1,2019_Aug_29_1226,SST,3.0.7,24.01165471923784,
go,sst_images/Left_Arrow.bmp,None,1,721,None,0,56,56,56,,1,1,0.6705641370208468,go,0.2,0.721,1.721,031,Scanner,R,1,2019_Aug_29_1226,SST,3.0.7,24.01165471923784,
go,sst_images/Left_Arrow.bmp,None,1,752,None,0,57,57,57,,1,1,0.4499692350218538,go,0.2,0.752,1.752,031,Scanner,R,1,2019_Aug_29_1226,SST,3.0.7,24.01165471923784,
go,sst_images/Left_Arrow.bmp,None,1,910,None,0,58,58,58,,1,1,0.5821523830236401,go,0.2,0.91,1.9100000000000001,031,Scanner,R,1,2019_Aug_29_1226,SST,3.0.7,24.01165471923784,
go,sst_images/Right_Arrow.bmp,None,2,813,None,0,59,59,59,,2,1,0.4613221089821309,go,0.2,0.813,1.813,031,Scanner,R,1,2019_Aug_29_1226,SST,3.0.7,24.01165471923784,
go,sst_images/Left_Arrow.bmp,None,1,1089,None,0,60,60,60,,1,1,0.539768966002157,go,0.2,1.089,2.089,031,Scanner,R,1,2019_Aug_29_1226,SST,3.0.7,24.01165471923784,
go,sst_images/Left_Arrow.bmp,None,1,701,None,0,61,61,61,,1,1,0.4617968210077379,go,0.2,0.701,1.701,031,Scanner,R,1,2019_Aug_29_1226,SST,3.0.7,24.01165471923784,
stop,sst_images/Right_Arrow.bmp,sst_images/Stop_Arrow.bmp,none,738,None,0,62,62,62,,2,0,0.481987076025689,stop,0.15000000000000002,0.738,1.756012923974311,031,Scanner,R,1,2019_Aug_29_1226,SST,3.0.7,24.01165471923784,
go,sst_images/Right_Arrow.bmp,None,2,824,None,0,63,63,63,,2,1,0.627073770010611,go,0.15000000000000002,0.824,1.8239999999999998,031,Scanner,R,1,2019_Aug_29_1226,SST,3.0.7,24.01165471923784,
go,sst_images/Right_Arrow.bmp,None,2,720,None,0,64,64,64,,2,1,0.5338239950069692,go,0.15000000000000002,0.72,1.72,031,Scanner,R,1,2019_Aug_29_1226,SST,3.0.7,24.01165471923784,
go,sst_images/Left_Arrow.bmp,None,1,1002,None,0,65,65,65,,1,1,0.420940595009597,go,0.15000000000000002,1.002,2.002,031,Scanner,R,1,2019_Aug_29_1226,SST,3.0.7,24.01165471923784,
go,sst_images/Right_Arrow.bmp,None,2,878,None,0,66,66,66,,2,1,0.3796796909882687,go,0.15000000000000002,0.878,1.8780000000000001,031,Scanner,R,1,2019_Aug_29_1226,SST,3.0.7,24.01165471923784,
stop,sst_images/Right_Arrow.bmp,sst_images/Stop_Arrow.bmp,none,828,None,0,67,67,67,,None,1,,stop,0.2,0.828,1.828,031,Scanner,R,1,2019_Aug_29_1226,SST,3.0.7,24.01165471923784,
go,sst_images/Left_Arrow.bmp,None,1,780,None,0,68,68,68,,1,1,0.37783732800744474,go,0.2,0.78,1.78,031,Scanner,R,1,2019_Aug_29_1226,SST,3.0.7,24.01165471923784,
go,sst_images/Right_Arrow.bmp,None,2,710,None,0,69,69,69,,2,1,0.4556646489945706,go,0.2,0.71,1.71,031,Scanner,R,1,2019_Aug_29_1226,SST,3.0.7,24.01165471923784,
go,sst_images/Right_Arrow.bmp,None,2,850,None,0,70,70,70,,2,1,0.6690244849887677,go,0.2,0.85,1.85,031,Scanner,R,1,2019_Aug_29_1226,SST,3.0.7,24.01165471923784,
go,sst_images/Left_Arrow.bmp,None,1,919,None,0,71,71,71,,1,1,0.6297766999923624,go,0.2,0.919,1.919,031,Scanner,R,1,2019_Aug_29_1226,SST,3.0.7,24.01165471923784,
go,sst_images/Right_Arrow.bmp,None,2,1527,None,0,72,72,72,,2,1,0.5894013170036487,go,0.2,1.527,2.527,031,Scanner,R,1,2019_Aug_29_1226,SST,3.0.7,24.01165471923784,
go,sst_images/Left_Arrow.bmp,None,1,723,None,0,73,73,73,,1,1,0.38105071798781864,go,0.2,0.723,1.7229999999999999,031,Scanner,R,1,2019_Aug_29_1226,SST,3.0.7,24.01165471923784,
go,sst_images/Right_Arrow.bmp,None,2,1424,None,0,74,74,74,,2,1,0.4638960970041808,go,0.2,1.424,2.424,031,Scanner,R,1,2019_Aug_29_1226,SST,3.0.7,24.01165471923784,
go,sst_images/Left_Arrow.bmp,None,1,1126,None,0,75,75,75,,1,1,0.5024288449785672,go,0.2,1.126,2.126,031,Scanner,R,1,2019_Aug_29_1226,SST,3.0.7,24.01165471923784,
go,sst_images/Right_Arrow.bmp,None,2,747,None,0,76,76,76,,2,1,0.5042893859790638,go,0.2,0.747,1.7469999999999999,031,Scanner,R,1,2019_Aug_29_1226,SST,3.0.7,24.01165471923784,
go,sst_images/Right_Arrow.bmp,None,2,1140,None,0,77,77,77,,2,1,0.4931788849935401,go,0.2,1.14,2.1399999999999997,031,Scanner,R,1,2019_Aug_29_1226,SST,3.0.7,24.01165471923784,
go,sst_images/Left_Arrow.bmp,None,1,1110,None,0,78,78,78,,1,1,0.4214811169949826,go,0.2,1.11,2.1100000000000003,031,Scanner,R,1,2019_Aug_29_1226,SST,3.0.7,24.01165471923784,
go,sst_images/Left_Arrow.bmp,None,1,838,None,0,79,79,79,,2,0,0.4211235450056847,go,0.2,0.838,1.838,031,Scanner,R,1,2019_Aug_29_1226,SST,3.0.7,24.01165471923784,
go,sst_images/Right_Arrow.bmp,None,2,823,None,0,80,80,80,,2,1,0.5054869010054972,go,0.2,0.823,1.823,031,Scanner,R,1,2019_Aug_29_1226,SST,3.0.7,24.01165471923784,
stop,sst_images/Left_Arrow.bmp,sst_images/Stop_Arrow.bmp,none,896,None,0,81,81,81,,1,0,0.45353129401337355,stop,0.15000000000000002,0.896,1.9424687059866264,031,Scanner,R,1,2019_Aug_29_1226,SST,3.0.7,24.01165471923784,
go,sst_images/Right_Arrow.bmp,None,2,776,None,0,82,82,82,,2,1,0.41873958602081984,go,0.15000000000000002,0.776,1.776,031,Scanner,R,1,2019_Aug_29_1226,SST,3.0.7,24.01165471923784,
go,sst_images/Right_Arrow.bmp,None,2,899,None,0,83,83,83,,2,1,0.5458554959914181,go,0.15000000000000002,0.899,1.899,031,Scanner,R,1,2019_Aug_29_1226,SST,3.0.7,24.01165471923784,
go,sst_images/Left_Arrow.bmp,None,1,725,None,0,84,84,84,,1,1,0.504745265992824,go,0.15000000000000002,0.725,1.725,031,Scanner,R,1,2019_Aug_29_1226,SST,3.0.7,24.01165471923784,
go,sst_images/Left_Arrow.bmp,None,1,955,None,0,85,85,85,,1,1,0.4214099209930282,go,0.15000000000000002,0.955,1.955,031,Scanner,R,1,2019_Aug_29_1226,SST,3.0.7,24.01165471923784,
go,sst_images/Right_Arrow.bmp,None,2,804,None,0,86,86,86,,2,1,0.4615513850003481,go,0.15000000000000002,0.804,1.804,031,Scanner,R,1,2019_Aug_29_1226,SST,3.0.7,24.01165471923784,
stop,sst_images/Right_Arrow.bmp,sst_images/Stop_Arrow.bmp,none,708,None,0,87,87,87,,2,0,0.49223205901216716,stop,0.10000000000000002,0.708,1.665767940987833,031,Scanner,R,1,2019_Aug_29_1226,SST,3.0.7,24.01165471923784,
go,sst_images/Left_Arrow.bmp,None,1,775,None,0,88,88,88,,1,1,0.418851900001755,go,0.10000000000000002,0.775,1.775,031,Scanner,R,1,2019_Aug_29_1226,SST,3.0.7,24.01165471923784,
go,sst_images/Right_Arrow.bmp,None,2,1159,None,0,89,89,89,,2,1,0.41976946298382245,go,0.10000000000000002,1.159,2.159,031,Scanner,R,1,2019_Aug_29_1226,SST,3.0.7,24.01165471923784,
go,sst_images/Left_Arrow.bmp,None,1,1008,None,0,90,90,90,,1,1,0.4618308199860621,go,0.10000000000000002,1.008,2.008,031,Scanner,R,1,2019_Aug_29_1226,SST,3.0.7,24.01165471923784,
go,sst_images/Right_Arrow.bmp,None,2,868,None,0,91,91,91,,2,1,0.5465785179985687,go,0.10000000000000002,0.868,1.8679999999999999,031,Scanner,R,1,2019_Aug_29_1226,SST,3.0.7,24.01165471923784,
stop,sst_images/Right_Arrow.bmp,sst_images/Stop_Arrow.bmp,none,908,None,0,92,92,92,,None,1,,stop,0.15000000000000002,0.908,1.9080000000000001,031,Scanner,R,1,2019_Aug_29_1226,SST,3.0.7,24.01165471923784,
go,sst_images/Left_Arrow.bmp,None,1,726,None,0,93,93,93,,1,1,0.5050226149905939,go,0.15000000000000002,0.726,1.726,031,Scanner,R,1,2019_Aug_29_1226,SST,3.0.7,24.01165471923784,
go,sst_images/Left_Arrow.bmp,None,1,1339,None,0,94,94,94,,1,1,0.504244240000844,go,0.15000000000000002,1.339,2.339,031,Scanner,R,1,2019_Aug_29_1226,SST,3.0.7,24.01165471923784,
go,sst_images/Left_Arrow.bmp,None,1,734,None,0,95,95,95,,1,1,0.42292902900953777,go,0.15000000000000002,0.734,1.734,031,Scanner,R,1,2019_Aug_29_1226,SST,3.0.7,24.01165471923784,
go,sst_images/Right_Arrow.bmp,None,2,790,None,0,96,96,96,,2,1,0.4638437630201224,go,0.15000000000000002,0.79,1.79,031,Scanner,R,1,2019_Aug_29_1226,SST,3.0.7,24.01165471923784,
go,sst_images/Left_Arrow.bmp,None,1,739,None,0,97,97,97,,1,1,0.4182385610183701,go,0.15000000000000002,0.739,1.7389999999999999,031,Scanner,R,1,2019_Aug_29_1226,SST,3.0.7,24.01165471923784,
go,sst_images/Right_Arrow.bmp,None,2,1021,None,0,98,98,98,,2,1,0.3769741620053537,go,0.15000000000000002,1.021,2.021,031,Scanner,R,1,2019_Aug_29_1226,SST,3.0.7,24.01165471923784,
stop,sst_images/Left_Arrow.bmp,sst_images/Stop_Arrow.bmp,none,920,None,0,99,99,99,,1,0,0.4601845709839836,stop,0.10000000000000002,0.92,1.9098154290160163,031,Scanner,R,1,2019_Aug_29_1226,SST,3.0.7,24.01165471923784,
go,sst_images/Right_Arrow.bmp,None,2,810,None,0,100,100,100,,2,1,0.5018278680217918,go,0.10000000000000002,0.81,1.81,031,Scanner,R,1,2019_Aug_29_1226,SST,3.0.7,24.01165471923784,
go,sst_images/Left_Arrow.bmp,None,1,841,None,0,101,101,101,,1,1,0.4081759509863332,go,0.10000000000000002,0.841,1.841,031,Scanner,R,1,2019_Aug_29_1226,SST,3.0.7,24.01165471923784,
go,sst_images/Right_Arrow.bmp,None,2,715,None,0,102,102,102,,2,1,0.37926207500277087,go,0.10000000000000002,0.715,1.7149999999999999,031,Scanner,R,1,2019_Aug_29_1226,SST,3.0.7,24.01165471923784,
go,sst_images/Right_Arrow.bmp,None,2,1037,None,0,103,103,103,,1,0,0.33481191599275917,go,0.10000000000000002,1.037,2.037,031,Scanner,R,1,2019_Aug_29_1226,SST,3.0.7,24.01165471923784,
go,sst_images/Left_Arrow.bmp,None,1,769,None,0,104,104,104,,1,1,0.457310628000414,go,0.10000000000000002,0.769,1.7690000000000001,031,Scanner,R,1,2019_Aug_29_1226,SST,3.0.7,24.01165471923784,
go,sst_images/Left_Arrow.bmp,None,1,815,None,0,105,105,105,,1,1,0.5021667440014426,go,0.10000000000000002,0.815,1.815,031,Scanner,R,1,2019_Aug_29_1226,SST,3.0.7,24.01165471923784,
stop,sst_images/Left_Arrow.bmp,sst_images/Stop_Arrow.bmp,none,1672,None,0,106,106,106,,None,1,,stop,0.15000000000000002,1.672,2.6719999999999997,031,Scanner,R,1,2019_Aug_29_1226,SST,3.0.7,24.01165471923784,
go,sst_images/Right_Arrow.bmp,None,2,935,None,0,107,107,107,,2,1,0.5062747079937253,go,0.15000000000000002,0.935,1.935,031,Scanner,R,1,2019_Aug_29_1226,SST,3.0.7,24.01165471923784,
go,sst_images/Right_Arrow.bmp,None,2,909,None,0,108,108,108,,2,1,0.46214046198292635,go,0.15000000000000002,0.909,1.909,031,Scanner,R,1,2019_Aug_29_1226,SST,3.0.7,24.01165471923784,
go,sst_images/Left_Arrow.bmp,None,1,776,None,0,109,109,109,,1,1,0.45973403900279664,go,0.15000000000000002,0.776,1.776,031,Scanner,R,1,2019_Aug_29_1226,SST,3.0.7,24.01165471923784,
stop,sst_images/Right_Arrow.bmp,sst_images/Stop_Arrow.bmp,none,842,None,0,110,110,110,,2,0,0.39949896701727994,stop,0.10000000000000002,0.842,1.89250103298272,031,Scanner,R,1,2019_Aug_29_1226,SST,3.0.7,24.01165471923784,
go,sst_images/Right_Arrow.bmp,None,2,994,None,0,111,111,111,,2,1,0.5046155030140653,go,0.10000000000000002,0.994,1.994,031,Scanner,R,1,2019_Aug_29_1226,SST,3.0.7,24.01165471923784,
go,sst_images/Left_Arrow.bmp,None,1,755,None,0,112,112,112,,1,1,0.4617824539891444,go,0.10000000000000002,0.755,1.755,031,Scanner,R,1,2019_Aug_29_1226,SST,3.0.7,24.01165471923784,
go,sst_images/Right_Arrow.bmp,None,2,796,None,0,113,113,113,,2,1,0.5057113020156976,go,0.10000000000000002,0.796,1.796,031,Scanner,R,1,2019_Aug_29_1226,SST,3.0.7,24.01165471923784,
stop,sst_images/Left_Arrow.bmp,sst_images/Stop_Arrow.bmp,none,1072,None,0,114,114,114,,None,1,,stop,0.15000000000000002,1.072,2.072,031,Scanner,R,1,2019_Aug_29_1226,SST,3.0.7,24.01165471923784,
go,sst_images/Left_Arrow.bmp,None,1,882,None,0,115,115,115,,1,1,0.49712431302759796,go,0.15000000000000002,0.882,1.8820000000000001,031,Scanner,R,1,2019_Aug_29_1226,SST,3.0.7,24.01165471923784,
go,sst_images/Right_Arrow.bmp,None,2,1214,None,0,116,116,116,,2,1,0.4968159619893413,go,0.15000000000000002,1.214,2.214,031,Scanner,R,1,2019_Aug_29_1226,SST,3.0.7,24.01165471923784,
go,sst_images/Left_Arrow.bmp,None,1,937,None,0,117,117,117,,1,1,0.4626982439949643,go,0.15000000000000002,0.937,1.937,031,Scanner,R,1,2019_Aug_29_1226,SST,3.0.7,24.01165471923784,
stop,sst_images/Left_Arrow.bmp,sst_images/Stop_Arrow.bmp,none,806,None,0,118,118,118,,1,0,0.484374672989361,stop,0.10000000000000002,0.806,1.771625327010639,031,Scanner,R,1,2019_Aug_29_1226,SST,3.0.7,24.01165471923784,
go,sst_images/Right_Arrow.bmp,None,2,825,None,0,119,119,119,,2,1,0.46158040000591427,go,0.10000000000000002,0.825,1.825,031,Scanner,R,1,2019_Aug_29_1226,SST,3.0.7,24.01165471923784,
go,sst_images/Left_Arrow.bmp,None,1,704,None,0,120,120,120,,1,1,0.5311962759878952,go,0.10000000000000002,0.704,1.704,031,Scanner,R,1,2019_Aug_29_1226,SST,3.0.7,24.01165471923784,
go,sst_images/Right_Arrow.bmp,None,2,1672,None,0,121,121,121,,2,1,0.4186021839850582,go,0.10000000000000002,1.672,2.6719999999999997,031,Scanner,R,1,2019_Aug_29_1226,SST,3.0.7,24.01165471923784,
go,sst_images/Left_Arrow.bmp,None,1,1315,None,0,122,122,122,,1,1,0.62689983000746,go,0.10000000000000002,1.315,2.315,031,Scanner,R,1,2019_Aug_29_1226,SST,3.0.7,24.01165471923784,
stop,sst_images/Right_Arrow.bmp,sst_images/Stop_Arrow.bmp,none,828,None,0,123,123,123,,None,1,,stop,0.15000000000000002,0.828,1.828,031,Scanner,R,1,2019_Aug_29_1226,SST,3.0.7,24.01165471923784,
go,sst_images/Right_Arrow.bmp,None,2,713,None,0,124,124,124,,2,1,0.4611425479815807,go,0.15000000000000002,0.713,1.713,031,Scanner,R,1,2019_Aug_29_1226,SST,3.0.7,24.01165471923784,
go,sst_images/Right_Arrow.bmp,None,2,1203,None,0,125,125,125,,2,1,0.5405797800049186,go,0.15000000000000002,1.203,2.2030000000000003,031,Scanner,R,1,2019_Aug_29_1226,SST,3.0.7,24.01165471923784,
go,sst_images/Left_Arrow.bmp,None,1,806,None,0,126,126,126,,1,1,0.5056248799955938,go,0.15000000000000002,0.806,1.806,031,Scanner,R,1,2019_Aug_29_1226,SST,3.0.7,24.01165471923784,
go,sst_images/Left_Arrow.bmp,None,1,969,None,0,127,127,127,,1,1,0.5056674210063647,go,0.15000000000000002,0.969,1.9689999999999999,031,Scanner,R,1,2019_Aug_29_1226,SST,3.0.7,24.01165471923784,
go,sst_images/Left_Arrow.bmp,None,1,727,None,0,128,128,128,,1,1,0.5461243099998683,go,0.15000000000000002,0.727,1.7269999999999999,031,Scanner,R,1,2019_Aug_29_1226,SST,3.0.7,24.01165471923784,
go,sst_images/Right_Arrow.bmp,None,2,950,None,0,129,129,129,,2,1,0.546288312994875,go,0.15000000000000002,0.95,1.95,031,Scanner,R,1,2019_Aug_29_1226,SST,3.0.7,24.01165471923784,
stop,sst_images/Left_Arrow.bmp,sst_images/Stop_Arrow.bmp,none,1454,None,0,130,130,130,,None,1,,stop,0.2,1.454,2.4539999999999997,031,Scanner,R,1,2019_Aug_29_1226,SST,3.0.7,24.01165471923784,
go,sst_images/Left_Arrow.bmp,None,1,1304,None,0,131,131,131,,1,1,0.502735069982009,go,0.2,1.304,2.3040000000000003,031,Scanner,R,1,2019_Aug_29_1226,SST,3.0.7,24.01165471923784,
go,sst_images/Left_Arrow.bmp,None,1,739,None,0,132,132,132,,1,1,0.5056694379891269,go,0.2,0.739,1.7389999999999999,031,Scanner,R,1,2019_Aug_29_1226,SST,3.0.7,24.01165471923784,
go,sst_images/Left_Arrow.bmp,None,1,712,None,0,133,133,133,,1,1,0.5459958039864432,go,0.2,0.712,1.712,031,Scanner,R,1,2019_Aug_29_1226,SST,3.0.7,24.01165471923784,
go,sst_images/Right_Arrow.bmp,None,2,707,None,0,134,134,134,,2,1,0.6310386609984562,go,0.2,0.707,1.7069999999999999,031,Scanner,R,1,2019_Aug_29_1226,SST,3.0.7,24.01165471923784,
go,sst_images/Left_Arrow.bmp,None,1,855,None,0,135,135,135,,1,1,0.5060310520057101,go,0.2,0.855,1.855,031,Scanner,R,1,2019_Aug_29_1226,SST,3.0.7,24.01165471923784,
go,sst_images/Left_Arrow.bmp,None,1,823,None,0,136,136,136,,1,1,0.3968243720009923,go,0.2,0.823,1.823,031,Scanner,R,1,2019_Aug_29_1226,SST,3.0.7,24.01165471923784,
go,sst_images/Right_Arrow.bmp,None,2,862,None,0,137,137,137,,2,1,0.46273676099372096,go,0.2,0.862,1.862,031,Scanner,R,1,2019_Aug_29_1226,SST,3.0.7,24.01165471923784,
go,sst_images/Right_Arrow.bmp,None,2,791,None,0,138,138,138,,2,1,0.5854427019949071,go,0.2,0.791,1.791,031,Scanner,R,1,2019_Aug_29_1226,SST,3.0.7,24.01165471923784,
go,sst_images/Left_Arrow.bmp,None,1,1417,None,0,139,139,139,,1,1,0.5449750160041731,go,0.2,1.417,2.417,031,Scanner,R,1,2019_Aug_29_1226,SST,3.0.7,24.01165471923784,
go,sst_images/Right_Arrow.bmp,None,2,777,None,0,140,140,140,,2,1,0.5004062420048285,go,0.2,0.777,1.7770000000000001,031,Scanner,R,1,2019_Aug_29_1226,SST,3.0.7,24.01165471923784,
go,sst_images/Left_Arrow.bmp,None,1,703,None,0,141,141,141,,1,1,0.4612634280056227,go,0.2,0.703,1.7029999999999998,031,Scanner,R,1,2019_Aug_29_1226,SST,3.0.7,24.01165471923784,
stop,sst_images/Right_Arrow.bmp,sst_images/Stop_Arrow.bmp,none,955,None,0,142,142,142,,2,0,0.4589116600109264,stop,0.15000000000000002,0.955,1.9960883399890736,031,Scanner,R,1,2019_Aug_29_1226,SST,3.0.7,24.01165471923784,
go,sst_images/Left_Arrow.bmp,None,1,908,None,0,143,143,143,,1,1,0.4864673519914504,go,0.15000000000000002,0.908,1.908,031,Scanner,R,1,2019_Aug_29_1226,SST,3.0.7,24.01165471923784,
go,sst_images/Right_Arrow.bmp,None,2,709,None,0,144,144,144,,2,1,0.5046520020114258,go,0.15000000000000002,0.709,1.709,031,Scanner,R,1,2019_Aug_29_1226,SST,3.0.7,24.01165471923784,
go,sst_images/Left_Arrow.bmp,None,1,713,None,0,145,145,145,,1,1,0.5838593280059285,go,0.15000000000000002,0.713,1.713,031,Scanner,R,1,2019_Aug_29_1226,SST,3.0.7,24.01165471923784,
go,sst_images/Right_Arrow.bmp,None,2,1002,None,0,146,146,146,,2,1,0.4531115209974814,go,0.15000000000000002,1.002,2.002,031,Scanner,R,1,2019_Aug_29_1226,SST,3.0.7,24.01165471923784,
go,sst_images/Left_Arrow.bmp,None,1,722,None,0,147,147,147,,1,1,0.46252815501065925,go,0.15000000000000002,0.722,1.722,031,Scanner,R,1,2019_Aug_29_1226,SST,3.0.7,24.01165471923784,
stop,sst_images/Right_Arrow.bmp,sst_images/Stop_Arrow.bmp,none,708,None,0,148,148,148,,2,0,0.44116069001029246,stop,0.10000000000000002,0.708,1.7168393099897077,031,Scanner,R,1,2019_Aug_29_1226,SST,3.0.7,24.01165471923784,
go,sst_images/Right_Arrow.bmp,None,2,715,None,0,149,149,149,,2,1,0.5044946570124011,go,0.10000000000000002,0.715,1.7149999999999999,031,Scanner,R,1,2019_Aug_29_1226,SST,3.0.7,24.01165471923784,
go,sst_images/Right_Arrow.bmp,None,2,750,None,0,150,150,150,,2,1,0.49376958698849194,go,0.10000000000000002,0.75,1.75,031,Scanner,R,1,2019_Aug_29_1226,SST,3.0.7,24.01165471923784,
go,sst_images/Left_Arrow.bmp,None,1,1148,None,0,151,151,151,,1,1,0.46287456099526025,go,0.10000000000000002,1.148,2.1479999999999997,031,Scanner,R,1,2019_Aug_29_1226,SST,3.0.7,24.01165471923784,
go,sst_images/Right_Arrow.bmp,None,2,2000,None,0,152,152,152,,2,1,0.5078851010184735,go,0.10000000000000002,2.0,3.0,031,Scanner,R,1,2019_Aug_29_1226,SST,3.0.7,24.01165471923784,
go,sst_images/Left_Arrow.bmp,None,1,888,None,0,153,153,153,,1,1,0.4608623640087899,go,0.10000000000000002,0.888,1.888,031,Scanner,R,1,2019_Aug_29_1226,SST,3.0.7,24.01165471923784,
go,sst_images/Right_Arrow.bmp,None,2,810,None,0,154,154,154,,2,1,0.8789972410013434,go,0.10000000000000002,0.81,1.81,031,Scanner,R,1,2019_Aug_29_1226,SST,3.0.7,24.01165471923784,
stop,sst_images/Left_Arrow.bmp,sst_images/Stop_Arrow.bmp,none,796,None,0,155,155,155,,None,1,,stop,0.15000000000000002,0.796,1.796,031,Scanner,R,1,2019_Aug_29_1226,SST,3.0.7,24.01165471923784,
go,sst_images/Left_Arrow.bmp,None,1,828,None,0,156,156,156,,1,1,0.7128967799944803,go,0.15000000000000002,0.828,1.8279999999999998,031,Scanner,R,1,2019_Aug_29_1226,SST,3.0.7,24.01165471923784,
go,sst_images/Right_Arrow.bmp,None,2,907,None,0,157,157,157,,2,1,0.5029012320155744,go,0.15000000000000002,0.907,1.907,031,Scanner,R,1,2019_Aug_29_1226,SST,3.0.7,24.01165471923784,
stop,sst_images/Left_Arrow.bmp,sst_images/Stop_Arrow.bmp,none,720,None,0,158,158,158,,None,1,,stop,0.2,0.72,1.72,031,Scanner,R,1,2019_Aug_29_1226,SST,3.0.7,24.01165471923784,
go,sst_images/Left_Arrow.bmp,None,1,721,None,0,159,159,159,,1,1,0.6273949190217536,go,0.2,0.721,1.721,031,Scanner,R,1,2019_Aug_29_1226,SST,3.0.7,24.01165471923784,
go,sst_images/Left_Arrow.bmp,None,1,1077,None,0,160,160,160,,1,1,0.7541438059997745,go,0.2,1.077,2.077,031,Scanner,R,1,2019_Aug_29_1226,SST,3.0.7,24.01165471923784,
go,sst_images/Right_Arrow.bmp,None,2,1003,None,0,161,161,161,,2,1,0.5046711260220036,go,0.2,1.003,2.003,031,Scanner,R,1,2019_Aug_29_1226,SST,3.0.7,24.01165471923784,
go,sst_images/Left_Arrow.bmp,None,1,760,None,0,162,162,162,,1,1,0.6272434770071413,go,0.2,0.76,1.76,031,Scanner,R,1,2019_Aug_29_1226,SST,3.0.7,24.01165471923784,
go,sst_images/Right_Arrow.bmp,None,2,740,None,0,163,163,163,,2,1,0.46057842898881063,go,0.2,0.74,1.74,031,Scanner,R,1,2019_Aug_29_1226,SST,3.0.7,24.01165471923784,
go,sst_images/Right_Arrow.bmp,None,2,744,None,0,164,164,164,,2,1,0.49953776597976685,go,0.2,0.744,1.744,031,Scanner,R,1,2019_Aug_29_1226,SST,3.0.7,24.01165471923784,
go,sst_images/Right_Arrow.bmp,None,2,1134,None,0,165,165,165,,2,1,0.4912397460138891,go,0.2,1.134,2.134,031,Scanner,R,1,2019_Aug_29_1226,SST,3.0.7,24.01165471923784,
go,sst_images/Left_Arrow.bmp,None,1,771,None,0,166,166,166,,1,1,0.45884478400694206,go,0.2,0.771,1.771,031,Scanner,R,1,2019_Aug_29_1226,SST,3.0.7,24.01165471923784,
go,sst_images/Right_Arrow.bmp,None,2,730,None,0,167,167,167,,2,1,0.3795749789860565,go,0.2,0.73,1.73,031,Scanner,R,1,2019_Aug_29_1226,SST,3.0.7,24.01165471923784,
stop,sst_images/Left_Arrow.bmp,sst_images/Stop_Arrow.bmp,none,886,None,0,168,168,168,,1,0,0.3972885240218602,stop,0.15000000000000002,0.886,1.98871147597814,031,Scanner,R,1,2019_Aug_29_1226,SST,3.0.7,24.01165471923784,
go,sst_images/Right_Arrow.bmp,None,2,705,None,0,169,169,169,,2,1,0.5070108640065882,go,0.15000000000000002,0.705,1.705,031,Scanner,R,1,2019_Aug_29_1226,SST,3.0.7,24.01165471923784,
go,sst_images/Left_Arrow.bmp,None,1,1192,None,0,170,170,170,,1,1,0.5048840859963093,go,0.15000000000000002,1.192,2.192,031,Scanner,R,1,2019_Aug_29_1226,SST,3.0.7,24.01165471923784,
stop,sst_images/Right_Arrow.bmp,sst_images/Stop_Arrow.bmp,none,1064,None,0,171,171,171,,2,0,0.482250027009286,stop,0.10000000000000002,1.064,2.031749972990714,031,Scanner,R,1,2019_Aug_29_1226,SST,3.0.7,24.01165471923784,
go,sst_images/Right_Arrow.bmp,None,2,706,None,0,172,172,172,,2,1,0.5460699379909784,go,0.10000000000000002,0.706,1.706,031,Scanner,R,1,2019_Aug_29_1226,SST,3.0.7,24.01165471923784,
go,sst_images/Right_Arrow.bmp,None,2,849,None,0,173,173,173,,2,1,0.4200862110010348,go,0.10000000000000002,0.849,1.849,031,Scanner,R,1,2019_Aug_29_1226,SST,3.0.7,24.01165471923784,
go,sst_images/Right_Arrow.bmp,None,2,755,None,0,174,174,174,,2,1,0.4926645160012413,go,0.10000000000000002,0.755,1.755,031,Scanner,R,1,2019_Aug_29_1226,SST,3.0.7,24.01165471923784,
go,sst_images/Left_Arrow.bmp,None,1,875,None,0,175,175,175,,1,1,0.5020013710018247,go,0.10000000000000002,0.875,1.875,031,Scanner,R,1,2019_Aug_29_1226,SST,3.0.7,24.01165471923784,
go,sst_images/Right_Arrow.bmp,None,2,704,None,0,176,176,176,,2,1,0.4601395610079635,go,0.10000000000000002,0.704,1.704,031,Scanner,R,1,2019_Aug_29_1226,SST,3.0.7,24.01165471923784,
go,sst_images/Left_Arrow.bmp,None,1,756,None,0,177,177,177,,1,1,0.5447527310170699,go,0.10000000000000002,0.756,1.756,031,Scanner,R,1,2019_Aug_29_1226,SST,3.0.7,24.01165471923784,
stop,sst_images/Left_Arrow.bmp,sst_images/Stop_Arrow.bmp,none,1032,None,0,178,178,178,,1,0,0.46272361700539477,stop,0.05000000000000002,1.032,1.9692763829946054,031,Scanner,R,1,2019_Aug_29_1226,SST,3.0.7,24.01165471923784,
go,sst_images/Right_Arrow.bmp,None,2,1072,1279.0,0,179,179,179,,2,1,0.41149056001449935,go,0.05000000000000002,1.072,2.072,031,Scanner,R,1,2019_Aug_29_1226,SST,3.0.7,24.01165471923784,
