trial_type,arrow_1,arrow_2,corrAns,jitter,run_end_fixation,trials.thisRepN,trials.thisTrialN,trials.thisN,trials.thisIndex,randomized TrialOrder,key_response.keys,key_response.corr,key_response.rt,trial_t.routineEndVal,ss_delay,iti_duration,SOA,participant,prac_or_scan,handedness,run,date,expName,psychopyVersion,frameRate,
go,sst_images/Left_Arrow.bmp,None,1,713,None,0,0,0,0,2,1,1,0.6441216800012626,go,0.05,0.713,1.713,033,Scanner,R,1,2019_Aug_27_1231,SST,3.0.7,24.021469409648734,
stop,sst_images/Right_Arrow.bmp,sst_images/Stop_Arrow.bmp,none,767,None,0,1,1,1,,None,1,,stop,0.1,0.767,1.767,033,Scanner,R,1,2019_Aug_27_1231,SST,3.0.7,24.021469409648734,
go,sst_images/Right_Arrow.bmp,None,2,928,None,0,2,2,2,,2,1,0.41928231599740684,go,0.1,0.928,1.928,033,Scanner,R,1,2019_Aug_27_1231,SST,3.0.7,24.021469409648734,
go,sst_images/Right_Arrow.bmp,None,2,735,None,0,3,3,3,,2,1,0.5038668329943903,go,0.1,0.735,1.7349999999999999,033,Scanner,R,1,2019_Aug_27_1231,SST,3.0.7,24.021469409648734,
go,sst_images/Left_Arrow.bmp,None,1,1380,None,0,4,4,4,,1,1,0.5042031039774884,go,0.1,1.38,2.38,033,Scanner,R,1,2019_Aug_27_1231,SST,3.0.7,24.021469409648734,
go,sst_images/Left_Arrow.bmp,None,1,769,None,0,5,5,5,,1,1,0.5396214220090769,go,0.1,0.769,1.7690000000000001,033,Scanner,R,1,2019_Aug_27_1231,SST,3.0.7,24.021469409648734,
stop,sst_images/Left_Arrow.bmp,sst_images/Stop_Arrow.bmp,none,884,None,0,6,6,6,,None,1,,stop,0.15000000000000002,0.884,1.8840000000000001,033,Scanner,R,1,2019_Aug_27_1231,SST,3.0.7,24.021469409648734,
go,sst_images/Right_Arrow.bmp,None,2,732,None,0,7,7,7,,2,1,0.5463847240025643,go,0.15000000000000002,0.732,1.732,033,Scanner,R,1,2019_Aug_27_1231,SST,3.0.7,24.021469409648734,
go,sst_images/Left_Arrow.bmp,None,1,847,None,0,8,8,8,,1,1,0.5044759140000679,go,0.15000000000000002,0.847,1.847,033,Scanner,R,1,2019_Aug_27_1231,SST,3.0.7,24.021469409648734,
stop,sst_images/Left_Arrow.bmp,sst_images/Stop_Arrow.bmp,none,1278,None,0,9,9,9,,None,1,,stop,0.2,1.278,2.2779999999999996,033,Scanner,R,1,2019_Aug_27_1231,SST,3.0.7,24.021469409648734,
go,sst_images/Right_Arrow.bmp,None,2,701,None,0,10,10,10,,2,1,0.5045177330030128,go,0.2,0.701,1.701,033,Scanner,R,1,2019_Aug_27_1231,SST,3.0.7,24.021469409648734,
go,sst_images/Right_Arrow.bmp,None,2,1480,None,0,11,11,11,,2,1,0.46753545201499946,go,0.2,1.48,2.48,033,Scanner,R,1,2019_Aug_27_1231,SST,3.0.7,24.021469409648734,
go,sst_images/Left_Arrow.bmp,None,1,935,None,0,12,12,12,,1,1,0.4200717589992564,go,0.2,0.935,1.935,033,Scanner,R,1,2019_Aug_27_1231,SST,3.0.7,24.021469409648734,
go,sst_images/Right_Arrow.bmp,None,2,1533,None,0,13,13,13,,2,1,0.461173092975514,go,0.2,1.533,2.533,033,Scanner,R,1,2019_Aug_27_1231,SST,3.0.7,24.021469409648734,
go,sst_images/Left_Arrow.bmp,None,1,747,None,0,14,14,14,,1,1,0.42080708098364994,go,0.2,0.747,1.7469999999999999,033,Scanner,R,1,2019_Aug_27_1231,SST,3.0.7,24.021469409648734,
go,sst_images/Left_Arrow.bmp,None,1,1758,None,0,15,15,15,,1,1,0.4617975549772382,go,0.2,1.758,2.758,033,Scanner,R,1,2019_Aug_27_1231,SST,3.0.7,24.021469409648734,
go,sst_images/Left_Arrow.bmp,None,1,818,None,0,16,16,16,,1,1,0.5021302890090737,go,0.2,0.818,1.818,033,Scanner,R,1,2019_Aug_27_1231,SST,3.0.7,24.021469409648734,
go,sst_images/Right_Arrow.bmp,None,2,833,None,0,17,17,17,,2,1,0.45913474599365145,go,0.2,0.833,1.833,033,Scanner,R,1,2019_Aug_27_1231,SST,3.0.7,24.021469409648734,
stop,sst_images/Right_Arrow.bmp,sst_images/Stop_Arrow.bmp,none,1248,None,0,18,18,18,,2,0,0.4445428909966722,stop,0.15000000000000002,1.248,2.3034571090033276,033,Scanner,R,1,2019_Aug_27_1231,SST,3.0.7,24.021469409648734,
go,sst_images/Left_Arrow.bmp,None,1,1081,None,0,19,19,19,,1,1,0.5042975250107702,go,0.15000000000000002,1.081,2.081,033,Scanner,R,1,2019_Aug_27_1231,SST,3.0.7,24.021469409648734,
go,sst_images/Left_Arrow.bmp,None,1,872,None,0,20,20,20,,1,1,0.5059226529847365,go,0.15000000000000002,0.872,1.8719999999999999,033,Scanner,R,1,2019_Aug_27_1231,SST,3.0.7,24.021469409648734,
go,sst_images/Right_Arrow.bmp,None,2,820,None,0,21,21,21,,2,1,0.460661766002886,go,0.15000000000000002,0.82,1.8199999999999998,033,Scanner,R,1,2019_Aug_27_1231,SST,3.0.7,24.021469409648734,
go,sst_images/Left_Arrow.bmp,None,1,702,None,0,22,22,22,,1,1,0.5039418760279659,go,0.15000000000000002,0.702,1.702,033,Scanner,R,1,2019_Aug_27_1231,SST,3.0.7,24.021469409648734,
go,sst_images/Right_Arrow.bmp,None,2,833,None,0,23,23,23,,2,1,0.46487569497548975,go,0.15000000000000002,0.833,1.833,033,Scanner,R,1,2019_Aug_27_1231,SST,3.0.7,24.021469409648734,
go,sst_images/Left_Arrow.bmp,None,1,795,None,0,24,24,24,,1,1,0.42104181900504045,go,0.15000000000000002,0.795,1.795,033,Scanner,R,1,2019_Aug_27_1231,SST,3.0.7,24.021469409648734,
go,sst_images/Right_Arrow.bmp,None,2,846,None,0,25,25,25,,2,1,0.4203401650011074,go,0.15000000000000002,0.846,1.846,033,Scanner,R,1,2019_Aug_27_1231,SST,3.0.7,24.021469409648734,
go,sst_images/Right_Arrow.bmp,None,2,707,None,0,26,26,26,,2,1,0.5013814200065099,go,0.15000000000000002,0.707,1.7069999999999999,033,Scanner,R,1,2019_Aug_27_1231,SST,3.0.7,24.021469409648734,
go,sst_images/Left_Arrow.bmp,None,1,811,None,0,27,27,27,,1,1,0.5027702219958883,go,0.15000000000000002,0.811,1.811,033,Scanner,R,1,2019_Aug_27_1231,SST,3.0.7,24.021469409648734,
stop,sst_images/Right_Arrow.bmp,sst_images/Stop_Arrow.bmp,none,1022,None,0,28,28,28,,2,0,0.46536408198880963,stop,0.10000000000000002,1.022,2.0066359180111903,033,Scanner,R,1,2019_Aug_27_1231,SST,3.0.7,24.021469409648734,
go,sst_images/Right_Arrow.bmp,None,2,804,None,0,29,29,29,,2,1,0.5436885810049716,go,0.10000000000000002,0.804,1.804,033,Scanner,R,1,2019_Aug_27_1231,SST,3.0.7,24.021469409648734,
go,sst_images/Right_Arrow.bmp,None,2,741,None,0,30,30,30,,2,1,0.463318892987445,go,0.10000000000000002,0.741,1.741,033,Scanner,R,1,2019_Aug_27_1231,SST,3.0.7,24.021469409648734,
go,sst_images/Left_Arrow.bmp,None,1,889,None,0,31,31,31,,1,1,0.546293222985696,go,0.10000000000000002,0.889,1.889,033,Scanner,R,1,2019_Aug_27_1231,SST,3.0.7,24.021469409648734,
stop,sst_images/Left_Arrow.bmp,sst_images/Stop_Arrow.bmp,none,765,None,0,32,32,32,,None,1,,stop,0.15000000000000002,0.765,1.7650000000000001,033,Scanner,R,1,2019_Aug_27_1231,SST,3.0.7,24.021469409648734,
go,sst_images/Right_Arrow.bmp,None,2,1191,None,0,33,33,33,,2,1,0.4215275679889601,go,0.15000000000000002,1.191,2.191,033,Scanner,R,1,2019_Aug_27_1231,SST,3.0.7,24.021469409648734,
go,sst_images/Left_Arrow.bmp,None,1,1158,None,0,34,34,34,,1,1,0.5034683129924815,go,0.15000000000000002,1.158,2.158,033,Scanner,R,1,2019_Aug_27_1231,SST,3.0.7,24.021469409648734,
stop,sst_images/Right_Arrow.bmp,sst_images/Stop_Arrow.bmp,none,847,None,0,35,35,35,,None,1,,stop,0.2,0.847,1.8469999999999998,033,Scanner,R,1,2019_Aug_27_1231,SST,3.0.7,24.021469409648734,
go,sst_images/Left_Arrow.bmp,None,1,1121,None,0,36,36,36,,1,1,0.5042004690039903,go,0.2,1.121,2.121,033,Scanner,R,1,2019_Aug_27_1231,SST,3.0.7,24.021469409648734,
stop,sst_images/Right_Arrow.bmp,sst_images/Stop_Arrow.bmp,none,1008,None,0,37,37,37,,2,0,0.5420252179901581,stop,0.15000000000000002,1.008,1.9659747820098419,033,Scanner,R,1,2019_Aug_27_1231,SST,3.0.7,24.021469409648734,
go,sst_images/Right_Arrow.bmp,None,2,728,None,0,38,38,38,,2,1,0.5451225579890888,go,0.15000000000000002,0.728,1.728,033,Scanner,R,1,2019_Aug_27_1231,SST,3.0.7,24.021469409648734,
go,sst_images/Right_Arrow.bmp,None,2,812,None,0,39,39,39,,2,1,0.5440630709927063,go,0.15000000000000002,0.812,1.812,033,Scanner,R,1,2019_Aug_27_1231,SST,3.0.7,24.021469409648734,
go,sst_images/Left_Arrow.bmp,None,1,836,None,0,40,40,40,,1,1,0.8777119099977426,go,0.15000000000000002,0.836,1.8359999999999999,033,Scanner,R,1,2019_Aug_27_1231,SST,3.0.7,24.021469409648734,
go,sst_images/Left_Arrow.bmp,None,1,894,None,0,41,41,41,,1,1,0.5447507910139393,go,0.15000000000000002,0.894,1.8940000000000001,033,Scanner,R,1,2019_Aug_27_1231,SST,3.0.7,24.021469409648734,
stop,sst_images/Left_Arrow.bmp,sst_images/Stop_Arrow.bmp,none,714,None,0,42,42,42,,None,1,,stop,0.2,0.714,1.7139999999999997,033,Scanner,R,1,2019_Aug_27_1231,SST,3.0.7,24.021469409648734,
go,sst_images/Right_Arrow.bmp,None,2,719,None,0,43,43,43,,2,1,0.5037192390009295,go,0.2,0.719,1.7189999999999999,033,Scanner,R,1,2019_Aug_27_1231,SST,3.0.7,24.021469409648734,
go,sst_images/Left_Arrow.bmp,None,1,707,None,0,44,44,44,,1,1,0.5862385030195583,go,0.2,0.707,1.7069999999999999,033,Scanner,R,1,2019_Aug_27_1231,SST,3.0.7,24.021469409648734,
go,sst_images/Left_Arrow.bmp,None,1,787,None,0,45,45,45,,1,1,0.5729103430057876,go,0.2,0.787,1.787,033,Scanner,R,1,2019_Aug_27_1231,SST,3.0.7,24.021469409648734,
stop,sst_images/Right_Arrow.bmp,sst_images/Stop_Arrow.bmp,none,767,None,0,46,46,46,,2,0,0.48697507198085077,stop,0.15000000000000002,0.767,1.7800249280191491,033,Scanner,R,1,2019_Aug_27_1231,SST,3.0.7,24.021469409648734,
go,sst_images/Right_Arrow.bmp,None,2,783,None,0,47,47,47,,2,1,0.5898580489738379,go,0.15000000000000002,0.783,1.783,033,Scanner,R,1,2019_Aug_27_1231,SST,3.0.7,24.021469409648734,
go,sst_images/Right_Arrow.bmp,None,2,743,None,0,48,48,48,,2,1,0.4810156080056913,go,0.15000000000000002,0.743,1.7429999999999999,033,Scanner,R,1,2019_Aug_27_1231,SST,3.0.7,24.021469409648734,
go,sst_images/Right_Arrow.bmp,None,2,752,None,0,49,49,49,,None,0,,go,0.15000000000000002,0.752,1.752,033,Scanner,R,1,2019_Aug_27_1231,SST,3.0.7,24.021469409648734,
stop,sst_images/Left_Arrow.bmp,sst_images/Stop_Arrow.bmp,none,1219,None,0,50,50,50,,None,1,,stop,0.2,1.219,2.219,033,Scanner,R,1,2019_Aug_27_1231,SST,3.0.7,24.021469409648734,
go,sst_images/Left_Arrow.bmp,None,1,1510,None,0,51,51,51,,1,1,0.5042585500050336,go,0.2,1.51,2.51,033,Scanner,R,1,2019_Aug_27_1231,SST,3.0.7,24.021469409648734,
go,sst_images/Left_Arrow.bmp,None,1,1441,None,0,52,52,52,,1,1,0.5030551039963029,go,0.2,1.441,2.441,033,Scanner,R,1,2019_Aug_27_1231,SST,3.0.7,24.021469409648734,
go,sst_images/Left_Arrow.bmp,None,1,774,None,0,53,53,53,,1,1,0.5459311940066982,go,0.2,0.774,1.774,033,Scanner,R,1,2019_Aug_27_1231,SST,3.0.7,24.021469409648734,
go,sst_images/Right_Arrow.bmp,None,2,1033,None,0,54,54,54,,2,1,0.5481141060008667,go,0.2,1.033,2.033,033,Scanner,R,1,2019_Aug_27_1231,SST,3.0.7,24.021469409648734,
stop,sst_images/Right_Arrow.bmp,sst_images/Stop_Arrow.bmp,none,868,None,0,55,55,55,,2,0,0.5377801310096402,stop,0.15000000000000002,0.868,1.8302198689903597,033,Scanner,R,1,2019_Aug_27_1231,SST,3.0.7,24.021469409648734,
go,sst_images/Right_Arrow.bmp,None,2,836,None,0,56,56,56,,2,1,0.5038425009988714,go,0.15000000000000002,0.836,1.8359999999999999,033,Scanner,R,1,2019_Aug_27_1231,SST,3.0.7,24.021469409648734,
go,sst_images/Left_Arrow.bmp,None,1,713,None,0,57,57,57,,1,1,0.5468479029950686,go,0.15000000000000002,0.713,1.713,033,Scanner,R,1,2019_Aug_27_1231,SST,3.0.7,24.021469409648734,
go,sst_images/Left_Arrow.bmp,None,1,707,None,0,58,58,58,,1,1,0.6303893339936621,go,0.15000000000000002,0.707,1.7069999999999999,033,Scanner,R,1,2019_Aug_27_1231,SST,3.0.7,24.021469409648734,
go,sst_images/Left_Arrow.bmp,None,1,878,None,0,59,59,59,,1,1,0.5022494760050904,go,0.15000000000000002,0.878,1.8780000000000001,033,Scanner,R,1,2019_Aug_27_1231,SST,3.0.7,24.021469409648734,
go,sst_images/Right_Arrow.bmp,None,2,851,None,0,60,60,60,,2,1,0.6711860679788515,go,0.15000000000000002,0.851,1.851,033,Scanner,R,1,2019_Aug_27_1231,SST,3.0.7,24.021469409648734,
go,sst_images/Left_Arrow.bmp,None,1,1008,None,0,61,61,61,,1,1,0.6054576040187385,go,0.15000000000000002,1.008,2.008,033,Scanner,R,1,2019_Aug_27_1231,SST,3.0.7,24.021469409648734,
go,sst_images/Left_Arrow.bmp,None,1,1763,None,0,62,62,62,,1,1,0.546365214016987,go,0.15000000000000002,1.763,2.763,033,Scanner,R,1,2019_Aug_27_1231,SST,3.0.7,24.021469409648734,
go,sst_images/Right_Arrow.bmp,None,2,714,None,0,63,63,63,,2,1,0.5851939980057068,go,0.15000000000000002,0.714,1.714,033,Scanner,R,1,2019_Aug_27_1231,SST,3.0.7,24.021469409648734,
go,sst_images/Right_Arrow.bmp,None,2,1009,None,0,64,64,64,,2,1,0.502196036017267,go,0.15000000000000002,1.009,2.009,033,Scanner,R,1,2019_Aug_27_1231,SST,3.0.7,24.021469409648734,
go,sst_images/Left_Arrow.bmp,None,1,1274,None,0,65,65,65,,1,1,0.5275062449800316,go,0.15000000000000002,1.274,2.274,033,Scanner,R,1,2019_Aug_27_1231,SST,3.0.7,24.021469409648734,
stop,sst_images/Right_Arrow.bmp,sst_images/Stop_Arrow.bmp,none,787,None,0,66,66,66,,None,1,,stop,0.2,0.787,1.7870000000000001,033,Scanner,R,1,2019_Aug_27_1231,SST,3.0.7,24.021469409648734,
go,sst_images/Right_Arrow.bmp,None,2,1357,None,0,67,67,67,,2,1,0.5441797759849578,go,0.2,1.357,2.357,033,Scanner,R,1,2019_Aug_27_1231,SST,3.0.7,24.021469409648734,
go,sst_images/Left_Arrow.bmp,None,1,707,None,0,68,68,68,,1,1,0.5889185199921485,go,0.2,0.707,1.7069999999999999,033,Scanner,R,1,2019_Aug_27_1231,SST,3.0.7,24.021469409648734,
go,sst_images/Right_Arrow.bmp,None,2,735,None,0,69,69,69,,2,1,0.5783111590135377,go,0.2,0.735,1.7349999999999999,033,Scanner,R,1,2019_Aug_27_1231,SST,3.0.7,24.021469409648734,
stop,sst_images/Left_Arrow.bmp,sst_images/Stop_Arrow.bmp,none,707,None,0,70,70,70,,None,1,,stop,0.25,0.707,1.7069999999999999,033,Scanner,R,1,2019_Aug_27_1231,SST,3.0.7,24.021469409648734,
go,sst_images/Right_Arrow.bmp,None,2,796,None,0,71,71,71,,2,1,0.486984791001305,go,0.25,0.796,1.796,033,Scanner,R,1,2019_Aug_27_1231,SST,3.0.7,24.021469409648734,
go,sst_images/Left_Arrow.bmp,None,1,798,None,0,72,72,72,,1,1,0.5445136199996341,go,0.25,0.798,1.798,033,Scanner,R,1,2019_Aug_27_1231,SST,3.0.7,24.021469409648734,
go,sst_images/Right_Arrow.bmp,None,2,705,None,0,73,73,73,,2,1,0.5045467749878298,go,0.25,0.705,1.705,033,Scanner,R,1,2019_Aug_27_1231,SST,3.0.7,24.021469409648734,
go,sst_images/Left_Arrow.bmp,None,1,802,None,0,74,74,74,,1,1,0.4608932190167252,go,0.25,0.802,1.802,033,Scanner,R,1,2019_Aug_27_1231,SST,3.0.7,24.021469409648734,
stop,sst_images/Right_Arrow.bmp,sst_images/Stop_Arrow.bmp,none,1871,None,0,75,75,75,,2,0,0.44737364700995386,stop,0.2,1.871,2.973626352990046,033,Scanner,R,1,2019_Aug_27_1231,SST,3.0.7,24.021469409648734,
go,sst_images/Right_Arrow.bmp,None,2,912,None,0,76,76,76,,2,1,0.5892035209981259,go,0.2,0.912,1.912,033,Scanner,R,1,2019_Aug_27_1231,SST,3.0.7,24.021469409648734,
go,sst_images/Left_Arrow.bmp,None,1,752,None,0,77,77,77,,1,1,0.45744353500776924,go,0.2,0.752,1.752,033,Scanner,R,1,2019_Aug_27_1231,SST,3.0.7,24.021469409648734,
go,sst_images/Right_Arrow.bmp,None,2,868,None,0,78,78,78,,2,1,0.5042137550190091,go,0.2,0.868,1.8679999999999999,033,Scanner,R,1,2019_Aug_27_1231,SST,3.0.7,24.021469409648734,
stop,sst_images/Right_Arrow.bmp,sst_images/Stop_Arrow.bmp,none,719,None,0,79,79,79,,None,1,,stop,0.25,0.719,1.7189999999999999,033,Scanner,R,1,2019_Aug_27_1231,SST,3.0.7,24.021469409648734,
go,sst_images/Right_Arrow.bmp,None,2,789,None,0,80,80,80,,2,1,0.5839985829952639,go,0.25,0.789,1.7890000000000001,033,Scanner,R,1,2019_Aug_27_1231,SST,3.0.7,24.021469409648734,
go,sst_images/Left_Arrow.bmp,None,1,745,None,0,81,81,81,,1,1,0.5838343969953712,go,0.25,0.745,1.745,033,Scanner,R,1,2019_Aug_27_1231,SST,3.0.7,24.021469409648734,
go,sst_images/Left_Arrow.bmp,None,1,796,None,0,82,82,82,,1,1,0.6269930019916501,go,0.25,0.796,1.796,033,Scanner,R,1,2019_Aug_27_1231,SST,3.0.7,24.021469409648734,
go,sst_images/Right_Arrow.bmp,None,2,1025,None,0,83,83,83,,2,1,0.6270660849986598,go,0.25,1.025,2.025,033,Scanner,R,1,2019_Aug_27_1231,SST,3.0.7,24.021469409648734,
stop,sst_images/Left_Arrow.bmp,sst_images/Stop_Arrow.bmp,none,737,None,0,84,84,84,,None,1,,stop,0.3,0.737,1.7369999999999999,033,Scanner,R,1,2019_Aug_27_1231,SST,3.0.7,24.021469409648734,
go,sst_images/Right_Arrow.bmp,None,2,915,None,0,85,85,85,,2,1,0.46112912200624123,go,0.3,0.915,1.915,033,Scanner,R,1,2019_Aug_27_1231,SST,3.0.7,24.021469409648734,
go,sst_images/Right_Arrow.bmp,None,2,882,None,0,86,86,86,,2,1,0.6254896460159216,go,0.3,0.882,1.8820000000000001,033,Scanner,R,1,2019_Aug_27_1231,SST,3.0.7,24.021469409648734,
go,sst_images/Left_Arrow.bmp,None,1,704,None,0,87,87,87,,1,1,0.6721112960076425,go,0.3,0.704,1.704,033,Scanner,R,1,2019_Aug_27_1231,SST,3.0.7,24.021469409648734,
stop,sst_images/Left_Arrow.bmp,sst_images/Stop_Arrow.bmp,none,707,None,0,88,88,88,,1,0,0.4830508420127444,stop,0.25,0.707,1.8239491579872555,033,Scanner,R,1,2019_Aug_27_1231,SST,3.0.7,24.021469409648734,
go,sst_images/Left_Arrow.bmp,None,1,1357,None,0,89,89,89,,1,1,0.5452690139936749,go,0.25,1.357,2.357,033,Scanner,R,1,2019_Aug_27_1231,SST,3.0.7,24.021469409648734,
go,sst_images/Right_Arrow.bmp,None,2,740,None,0,90,90,90,,2,1,0.5033378629887011,go,0.25,0.74,1.74,033,Scanner,R,1,2019_Aug_27_1231,SST,3.0.7,24.021469409648734,
go,sst_images/Left_Arrow.bmp,None,1,1198,None,0,91,91,91,,1,1,0.5835385450045578,go,0.25,1.198,2.198,033,Scanner,R,1,2019_Aug_27_1231,SST,3.0.7,24.021469409648734,
go,sst_images/Right_Arrow.bmp,None,2,1899,None,0,92,92,92,,2,1,0.6142947489861399,go,0.25,1.899,2.899,033,Scanner,R,1,2019_Aug_27_1231,SST,3.0.7,24.021469409648734,
go,sst_images/Left_Arrow.bmp,None,1,1871,None,0,93,93,93,,1,1,0.587856837984873,go,0.25,1.871,2.871,033,Scanner,R,1,2019_Aug_27_1231,SST,3.0.7,24.021469409648734,
go,sst_images/Right_Arrow.bmp,None,2,1095,None,0,94,94,94,,2,1,0.6277170910034329,go,0.25,1.095,2.0949999999999998,033,Scanner,R,1,2019_Aug_27_1231,SST,3.0.7,24.021469409648734,
go,sst_images/Left_Arrow.bmp,None,1,790,None,0,95,95,95,,1,1,0.59085689499625,go,0.25,0.79,1.79,033,Scanner,R,1,2019_Aug_27_1231,SST,3.0.7,24.021469409648734,
go,sst_images/Left_Arrow.bmp,None,1,1633,None,0,96,96,96,,1,1,0.7137114939978346,go,0.25,1.633,2.633,033,Scanner,R,1,2019_Aug_27_1231,SST,3.0.7,24.021469409648734,
go,sst_images/Left_Arrow.bmp,None,1,791,None,0,97,97,97,,1,1,0.6711096919898409,go,0.25,0.791,1.791,033,Scanner,R,1,2019_Aug_27_1231,SST,3.0.7,24.021469409648734,
go,sst_images/Right_Arrow.bmp,None,2,750,None,0,98,98,98,,2,1,0.6283540050208103,go,0.25,0.75,1.75,033,Scanner,R,1,2019_Aug_27_1231,SST,3.0.7,24.021469409648734,
stop,sst_images/Right_Arrow.bmp,sst_images/Stop_Arrow.bmp,none,893,None,0,99,99,99,,2,0,0.5028348359919619,stop,0.2,0.893,1.9401651640080382,033,Scanner,R,1,2019_Aug_27_1231,SST,3.0.7,24.021469409648734,
go,sst_images/Left_Arrow.bmp,None,1,748,None,0,100,100,100,,1,1,0.5445346789783798,go,0.2,0.748,1.748,033,Scanner,R,1,2019_Aug_27_1231,SST,3.0.7,24.021469409648734,
go,sst_images/Right_Arrow.bmp,None,2,1219,None,0,101,101,101,,2,1,0.625367720000213,go,0.2,1.219,2.2190000000000003,033,Scanner,R,1,2019_Aug_27_1231,SST,3.0.7,24.021469409648734,
go,sst_images/Right_Arrow.bmp,None,2,938,None,0,102,102,102,,2,1,0.6280874290096108,go,0.2,0.938,1.938,033,Scanner,R,1,2019_Aug_27_1231,SST,3.0.7,24.021469409648734,
go,sst_images/Left_Arrow.bmp,None,1,706,None,0,103,103,103,,1,1,0.5872696309816092,go,0.2,0.706,1.706,033,Scanner,R,1,2019_Aug_27_1231,SST,3.0.7,24.021469409648734,
stop,sst_images/Left_Arrow.bmp,sst_images/Stop_Arrow.bmp,none,740,None,0,104,104,104,,1,0,0.4864327080140356,stop,0.15000000000000002,0.74,1.7535672919859644,033,Scanner,R,1,2019_Aug_27_1231,SST,3.0.7,24.021469409648734,
go,sst_images/Right_Arrow.bmp,None,2,1313,None,0,105,105,105,,2,1,0.5041505129775032,go,0.15000000000000002,1.313,2.3129999999999997,033,Scanner,R,1,2019_Aug_27_1231,SST,3.0.7,24.021469409648734,
go,sst_images/Right_Arrow.bmp,None,2,869,None,0,106,106,106,,2,1,0.5036845479917247,go,0.15000000000000002,0.869,1.869,033,Scanner,R,1,2019_Aug_27_1231,SST,3.0.7,24.021469409648734,
go,sst_images/Left_Arrow.bmp,None,1,862,None,0,107,107,107,,1,1,0.5846949970000423,go,0.15000000000000002,0.862,1.862,033,Scanner,R,1,2019_Aug_27_1231,SST,3.0.7,24.021469409648734,
stop,sst_images/Left_Arrow.bmp,sst_images/Stop_Arrow.bmp,none,894,None,0,108,108,108,,None,1,,stop,0.2,0.894,1.894,033,Scanner,R,1,2019_Aug_27_1231,SST,3.0.7,24.021469409648734,
go,sst_images/Left_Arrow.bmp,None,1,1016,None,0,109,109,109,,1,1,0.5458601409918629,go,0.2,1.016,2.016,033,Scanner,R,1,2019_Aug_27_1231,SST,3.0.7,24.021469409648734,
go,sst_images/Right_Arrow.bmp,None,2,929,None,0,110,110,110,,2,1,0.545644497993635,go,0.2,0.929,1.929,033,Scanner,R,1,2019_Aug_27_1231,SST,3.0.7,24.021469409648734,
stop,sst_images/Right_Arrow.bmp,sst_images/Stop_Arrow.bmp,none,758,None,0,111,111,111,,2,0,0.5294965080101974,stop,0.15000000000000002,0.758,1.7285034919898026,033,Scanner,R,1,2019_Aug_27_1231,SST,3.0.7,24.021469409648734,
go,sst_images/Right_Arrow.bmp,None,2,1181,None,0,112,112,112,,2,1,0.587994309986243,go,0.15000000000000002,1.181,2.181,033,Scanner,R,1,2019_Aug_27_1231,SST,3.0.7,24.021469409648734,
go,sst_images/Left_Arrow.bmp,None,1,747,None,0,113,113,113,,1,1,0.50359788100468,go,0.15000000000000002,0.747,1.7469999999999999,033,Scanner,R,1,2019_Aug_27_1231,SST,3.0.7,24.021469409648734,
go,sst_images/Right_Arrow.bmp,None,2,742,None,0,114,114,114,,2,1,0.7082313490100205,go,0.15000000000000002,0.742,1.742,033,Scanner,R,1,2019_Aug_27_1231,SST,3.0.7,24.021469409648734,
stop,sst_images/Left_Arrow.bmp,sst_images/Stop_Arrow.bmp,none,813,None,0,115,115,115,,None,1,,stop,0.2,0.813,1.813,033,Scanner,R,1,2019_Aug_27_1231,SST,3.0.7,24.021469409648734,
go,sst_images/Left_Arrow.bmp,None,1,702,None,0,116,116,116,,1,1,0.505820941994898,go,0.2,0.702,1.702,033,Scanner,R,1,2019_Aug_27_1231,SST,3.0.7,24.021469409648734,
go,sst_images/Right_Arrow.bmp,None,2,922,None,0,117,117,117,,2,1,0.5509286379965488,go,0.2,0.922,1.9220000000000002,033,Scanner,R,1,2019_Aug_27_1231,SST,3.0.7,24.021469409648734,
go,sst_images/Left_Arrow.bmp,None,1,959,None,0,118,118,118,,1,1,0.5878137489780784,go,0.2,0.959,1.959,033,Scanner,R,1,2019_Aug_27_1231,SST,3.0.7,24.021469409648734,
stop,sst_images/Right_Arrow.bmp,sst_images/Stop_Arrow.bmp,none,758,None,0,119,119,119,,2,0,0.4485093530092854,stop,0.15000000000000002,0.758,1.8094906469907146,033,Scanner,R,1,2019_Aug_27_1231,SST,3.0.7,24.021469409648734,
go,sst_images/Right_Arrow.bmp,None,2,760,None,0,120,120,120,,2,1,0.5004233009822201,go,0.15000000000000002,0.76,1.76,033,Scanner,R,1,2019_Aug_27_1231,SST,3.0.7,24.021469409648734,
go,sst_images/Left_Arrow.bmp,None,1,702,None,0,121,121,121,,1,1,0.49983902598614804,go,0.15000000000000002,0.702,1.702,033,Scanner,R,1,2019_Aug_27_1231,SST,3.0.7,24.021469409648734,
go,sst_images/Right_Arrow.bmp,None,2,879,None,0,122,122,122,,2,1,0.5006741700053681,go,0.15000000000000002,0.879,1.879,033,Scanner,R,1,2019_Aug_27_1231,SST,3.0.7,24.021469409648734,
go,sst_images/Left_Arrow.bmp,None,1,701,None,0,123,123,123,,1,1,0.5043566699896473,go,0.15000000000000002,0.701,1.701,033,Scanner,R,1,2019_Aug_27_1231,SST,3.0.7,24.021469409648734,
go,sst_images/Right_Arrow.bmp,None,2,779,None,0,124,124,124,,2,1,0.38092039999901317,go,0.15000000000000002,0.779,1.779,033,Scanner,R,1,2019_Aug_27_1231,SST,3.0.7,24.021469409648734,
go,sst_images/Left_Arrow.bmp,None,1,737,None,0,125,125,125,,1,1,0.42130670699407347,go,0.15000000000000002,0.737,1.737,033,Scanner,R,1,2019_Aug_27_1231,SST,3.0.7,24.021469409648734,
go,sst_images/Right_Arrow.bmp,None,2,782,None,0,126,126,126,,2,1,0.42319603700889274,go,0.15000000000000002,0.782,1.782,033,Scanner,R,1,2019_Aug_27_1231,SST,3.0.7,24.021469409648734,
go,sst_images/Right_Arrow.bmp,None,2,890,None,0,127,127,127,,2,1,0.6277446550084278,go,0.15000000000000002,0.89,1.8900000000000001,033,Scanner,R,1,2019_Aug_27_1231,SST,3.0.7,24.021469409648734,
go,sst_images/Left_Arrow.bmp,None,1,707,None,0,128,128,128,,1,1,0.5468969079956878,go,0.15000000000000002,0.707,1.7069999999999999,033,Scanner,R,1,2019_Aug_27_1231,SST,3.0.7,24.021469409648734,
go,sst_images/Left_Arrow.bmp,None,1,755,None,0,129,129,129,,1,1,0.5060576249961741,go,0.15000000000000002,0.755,1.755,033,Scanner,R,1,2019_Aug_27_1231,SST,3.0.7,24.021469409648734,
go,sst_images/Left_Arrow.bmp,None,1,750,None,0,130,130,130,,1,1,0.45998764599789865,go,0.15000000000000002,0.75,1.75,033,Scanner,R,1,2019_Aug_27_1231,SST,3.0.7,24.021469409648734,
go,sst_images/Right_Arrow.bmp,None,2,1732,None,0,131,131,131,,2,1,0.6272895150177646,go,0.15000000000000002,1.732,2.732,033,Scanner,R,1,2019_Aug_27_1231,SST,3.0.7,24.021469409648734,
go,sst_images/Left_Arrow.bmp,None,1,865,None,0,132,132,132,,1,1,0.5844561940175481,go,0.15000000000000002,0.865,1.865,033,Scanner,R,1,2019_Aug_27_1231,SST,3.0.7,24.021469409648734,
go,sst_images/Left_Arrow.bmp,None,1,722,None,0,133,133,133,,1,1,0.5434724070073571,go,0.15000000000000002,0.722,1.722,033,Scanner,R,1,2019_Aug_27_1231,SST,3.0.7,24.021469409648734,
stop,sst_images/Right_Arrow.bmp,sst_images/Stop_Arrow.bmp,none,798,None,0,134,134,134,,None,1,,stop,0.2,0.798,1.7979999999999998,033,Scanner,R,1,2019_Aug_27_1231,SST,3.0.7,24.021469409648734,
go,sst_images/Left_Arrow.bmp,None,1,893,None,0,135,135,135,,1,1,0.5823610079823993,go,0.2,0.893,1.893,033,Scanner,R,1,2019_Aug_27_1231,SST,3.0.7,24.021469409648734,
go,sst_images/Right_Arrow.bmp,None,2,756,None,0,136,136,136,,2,1,0.5446984969894402,go,0.2,0.756,1.756,033,Scanner,R,1,2019_Aug_27_1231,SST,3.0.7,24.021469409648734,
go,sst_images/Left_Arrow.bmp,None,1,804,None,0,137,137,137,,1,1,0.5048373619792983,go,0.2,0.804,1.804,033,Scanner,R,1,2019_Aug_27_1231,SST,3.0.7,24.021469409648734,
go,sst_images/Left_Arrow.bmp,None,1,700,None,0,138,138,138,,1,1,0.5460325690219179,go,0.2,0.7,1.7,033,Scanner,R,1,2019_Aug_27_1231,SST,3.0.7,24.021469409648734,
stop,sst_images/Left_Arrow.bmp,sst_images/Stop_Arrow.bmp,none,752,None,0,139,139,139,,1,0,0.4741175500093959,stop,0.15000000000000002,0.752,1.777882449990604,033,Scanner,R,1,2019_Aug_27_1231,SST,3.0.7,24.021469409648734,
go,sst_images/Right_Arrow.bmp,None,2,727,None,0,140,140,140,,2,1,0.5856220099958591,go,0.15000000000000002,0.727,1.7269999999999999,033,Scanner,R,1,2019_Aug_27_1231,SST,3.0.7,24.021469409648734,
go,sst_images/Right_Arrow.bmp,None,2,736,None,0,141,141,141,,2,1,0.5032942370162345,go,0.15000000000000002,0.736,1.736,033,Scanner,R,1,2019_Aug_27_1231,SST,3.0.7,24.021469409648734,
go,sst_images/Left_Arrow.bmp,None,1,787,None,0,142,142,142,,None,0,,go,0.15000000000000002,0.787,1.787,033,Scanner,R,1,2019_Aug_27_1231,SST,3.0.7,24.021469409648734,
go,sst_images/Right_Arrow.bmp,None,2,758,None,0,143,143,143,,2,1,0.5444232260051649,go,0.15000000000000002,0.758,1.758,033,Scanner,R,1,2019_Aug_27_1231,SST,3.0.7,24.021469409648734,
go,sst_images/Left_Arrow.bmp,None,1,765,None,0,144,144,144,,1,1,0.5878482099797111,go,0.15000000000000002,0.765,1.7650000000000001,033,Scanner,R,1,2019_Aug_27_1231,SST,3.0.7,24.021469409648734,
go,sst_images/Left_Arrow.bmp,None,1,717,None,0,145,145,145,,1,1,0.5418547989975195,go,0.15000000000000002,0.717,1.717,033,Scanner,R,1,2019_Aug_27_1231,SST,3.0.7,24.021469409648734,
go,sst_images/Right_Arrow.bmp,None,2,801,None,0,146,146,146,,2,1,0.5823363090166822,go,0.15000000000000002,0.801,1.8010000000000002,033,Scanner,R,1,2019_Aug_27_1231,SST,3.0.7,24.021469409648734,
go,sst_images/Left_Arrow.bmp,None,1,884,None,0,147,147,147,,1,1,0.48809046001406386,go,0.15000000000000002,0.884,1.884,033,Scanner,R,1,2019_Aug_27_1231,SST,3.0.7,24.021469409648734,
go,sst_images/Right_Arrow.bmp,None,2,754,None,0,148,148,148,,2,1,0.50216805798118,go,0.15000000000000002,0.754,1.754,033,Scanner,R,1,2019_Aug_27_1231,SST,3.0.7,24.021469409648734,
go,sst_images/Left_Arrow.bmp,None,1,927,None,0,149,149,149,,1,1,0.5471530389913823,go,0.15000000000000002,0.927,1.927,033,Scanner,R,1,2019_Aug_27_1231,SST,3.0.7,24.021469409648734,
go,sst_images/Right_Arrow.bmp,None,2,794,None,0,150,150,150,,2,1,0.5014662239991594,go,0.15000000000000002,0.794,1.794,033,Scanner,R,1,2019_Aug_27_1231,SST,3.0.7,24.021469409648734,
go,sst_images/Right_Arrow.bmp,None,2,1381,None,0,151,151,151,,2,1,0.6264670610253233,go,0.15000000000000002,1.381,2.3810000000000002,033,Scanner,R,1,2019_Aug_27_1231,SST,3.0.7,24.021469409648734,
go,sst_images/Left_Arrow.bmp,None,1,1259,None,0,152,152,152,,1,1,0.544374538003467,go,0.15000000000000002,1.259,2.259,033,Scanner,R,1,2019_Aug_27_1231,SST,3.0.7,24.021469409648734,
go,sst_images/Right_Arrow.bmp,None,2,717,None,0,153,153,153,,2,1,0.6614869810000528,go,0.15000000000000002,0.717,1.717,033,Scanner,R,1,2019_Aug_27_1231,SST,3.0.7,24.021469409648734,
go,sst_images/Left_Arrow.bmp,None,1,1278,None,0,154,154,154,,1,1,0.6219092569954228,go,0.15000000000000002,1.278,2.278,033,Scanner,R,1,2019_Aug_27_1231,SST,3.0.7,24.021469409648734,
go,sst_images/Right_Arrow.bmp,None,2,1066,None,0,155,155,155,,2,1,0.6567635379906278,go,0.15000000000000002,1.066,2.066,033,Scanner,R,1,2019_Aug_27_1231,SST,3.0.7,24.021469409648734,
stop,sst_images/Left_Arrow.bmp,sst_images/Stop_Arrow.bmp,none,742,None,0,156,156,156,,None,1,,stop,0.2,0.742,1.7419999999999998,033,Scanner,R,1,2019_Aug_27_1231,SST,3.0.7,24.021469409648734,
go,sst_images/Left_Arrow.bmp,None,1,752,None,0,157,157,157,,1,1,0.5058947989891749,go,0.2,0.752,1.752,033,Scanner,R,1,2019_Aug_27_1231,SST,3.0.7,24.021469409648734,
go,sst_images/Right_Arrow.bmp,None,2,715,None,0,158,158,158,,2,1,0.545937465998577,go,0.2,0.715,1.7149999999999999,033,Scanner,R,1,2019_Aug_27_1231,SST,3.0.7,24.021469409648734,
go,sst_images/Left_Arrow.bmp,None,1,893,None,0,159,159,159,,1,1,0.5057001160166692,go,0.2,0.893,1.893,033,Scanner,R,1,2019_Aug_27_1231,SST,3.0.7,24.021469409648734,
go,sst_images/Left_Arrow.bmp,None,1,998,None,0,160,160,160,,1,1,0.5862014940066729,go,0.2,0.998,1.998,033,Scanner,R,1,2019_Aug_27_1231,SST,3.0.7,24.021469409648734,
stop,sst_images/Left_Arrow.bmp,sst_images/Stop_Arrow.bmp,none,745,None,0,161,161,161,,None,1,,stop,0.25,0.745,1.7449999999999999,033,Scanner,R,1,2019_Aug_27_1231,SST,3.0.7,24.021469409648734,
go,sst_images/Right_Arrow.bmp,None,2,1453,None,0,162,162,162,,2,1,0.5468331229931209,go,0.25,1.453,2.4530000000000003,033,Scanner,R,1,2019_Aug_27_1231,SST,3.0.7,24.021469409648734,
go,sst_images/Left_Arrow.bmp,None,1,847,None,0,163,163,163,,1,1,0.5890591409988701,go,0.25,0.847,1.847,033,Scanner,R,1,2019_Aug_27_1231,SST,3.0.7,24.021469409648734,
go,sst_images/Right_Arrow.bmp,None,2,1248,None,0,164,164,164,,2,1,0.6294798670278396,go,0.25,1.248,2.248,033,Scanner,R,1,2019_Aug_27_1231,SST,3.0.7,24.021469409648734,
go,sst_images/Right_Arrow.bmp,None,2,829,None,0,165,165,165,,2,1,0.5847042850218713,go,0.25,0.829,1.829,033,Scanner,R,1,2019_Aug_27_1231,SST,3.0.7,24.021469409648734,
go,sst_images/Right_Arrow.bmp,None,2,1113,None,0,166,166,166,,None,0,,go,0.25,1.113,2.113,033,Scanner,R,1,2019_Aug_27_1231,SST,3.0.7,24.021469409648734,
go,sst_images/Left_Arrow.bmp,None,1,1154,None,0,167,167,167,,1,1,0.505010459019104,go,0.25,1.154,2.154,033,Scanner,R,1,2019_Aug_27_1231,SST,3.0.7,24.021469409648734,
go,sst_images/Right_Arrow.bmp,None,2,928,None,0,168,168,168,,2,1,0.5011154279927723,go,0.25,0.928,1.928,033,Scanner,R,1,2019_Aug_27_1231,SST,3.0.7,24.021469409648734,
go,sst_images/Right_Arrow.bmp,None,2,988,None,0,169,169,169,,2,1,0.5488885460072197,go,0.25,0.988,1.988,033,Scanner,R,1,2019_Aug_27_1231,SST,3.0.7,24.021469409648734,
go,sst_images/Left_Arrow.bmp,None,1,813,None,0,170,170,170,,1,1,0.5897652500134427,go,0.25,0.813,1.813,033,Scanner,R,1,2019_Aug_27_1231,SST,3.0.7,24.021469409648734,
stop,sst_images/Right_Arrow.bmp,sst_images/Stop_Arrow.bmp,none,783,None,0,171,171,171,,2,0,0.44987066101748496,stop,0.2,0.783,1.883129338982515,033,Scanner,R,1,2019_Aug_27_1231,SST,3.0.7,24.021469409648734,
go,sst_images/Right_Arrow.bmp,None,2,931,None,0,172,172,172,,2,1,0.5048786870029289,go,0.2,0.931,1.931,033,Scanner,R,1,2019_Aug_27_1231,SST,3.0.7,24.021469409648734,
go,sst_images/Right_Arrow.bmp,None,2,946,None,0,173,173,173,,2,1,0.5476159889949486,go,0.2,0.946,1.946,033,Scanner,R,1,2019_Aug_27_1231,SST,3.0.7,24.021469409648734,
go,sst_images/Right_Arrow.bmp,None,2,800,None,0,174,174,174,,2,1,0.5864816689863801,go,0.2,0.8,1.8,033,Scanner,R,1,2019_Aug_27_1231,SST,3.0.7,24.021469409648734,
go,sst_images/Left_Arrow.bmp,None,1,962,None,0,175,175,175,,1,1,0.6713878419832326,go,0.2,0.962,1.962,033,Scanner,R,1,2019_Aug_27_1231,SST,3.0.7,24.021469409648734,
go,sst_images/Right_Arrow.bmp,None,2,740,None,0,176,176,176,,2,1,0.630741978995502,go,0.2,0.74,1.74,033,Scanner,R,1,2019_Aug_27_1231,SST,3.0.7,24.021469409648734,
go,sst_images/Left_Arrow.bmp,None,1,758,None,0,177,177,177,,1,1,0.5441534479905386,go,0.2,0.758,1.758,033,Scanner,R,1,2019_Aug_27_1231,SST,3.0.7,24.021469409648734,
stop,sst_images/Left_Arrow.bmp,sst_images/Stop_Arrow.bmp,none,798,None,0,178,178,178,,None,1,,stop,0.25,0.798,1.798,033,Scanner,R,1,2019_Aug_27_1231,SST,3.0.7,24.021469409648734,
go,sst_images/Right_Arrow.bmp,None,2,737,2661.0,0,179,179,179,,2,1,0.587262565997662,go,0.25,0.737,1.737,033,Scanner,R,1,2019_Aug_27_1231,SST,3.0.7,24.021469409648734,
