trial_type,arrow_1,corrAns,ss_delay,iti_duration,key_response.keys,key_response.corr,key_response.rt,SOA,run_fixation_duration,participant,trial_order,handedness
go,sst_images/Left_Arrow.bmp,1,0.05,0.975,1,1,0.6857511559792329,1.975,,033,sst_trial_order_2B.csv,R
go,sst_images/Right_Arrow.bmp,2,0.05,0.775,2,1,0.5044062359957024,1.775,,033,sst_trial_order_2B.csv,R
go,sst_images/Right_Arrow.bmp,2,0.05,0.773,2,1,0.46466965501895174,1.7730000000000001,,033,sst_trial_order_2B.csv,R
go,sst_images/Left_Arrow.bmp,1,0.05,0.747,1,1,0.5042405750136822,1.7469999999999999,,033,sst_trial_order_2B.csv,R
stop,sst_images/Right_Arrow.bmp,none,0.1,0.709,,1,[],1.709,,033,sst_trial_order_2B.csv,R
go,sst_images/Left_Arrow.bmp,1,0.1,0.702,1,1,0.5531851759878919,1.702,,033,sst_trial_order_2B.csv,R
go,sst_images/Right_Arrow.bmp,2,0.1,0.931,2,1,0.4978009590122383,1.931,,033,sst_trial_order_2B.csv,R
go,sst_images/Left_Arrow.bmp,1,0.1,1.149,1,1,0.46140287499292754,2.149,,033,sst_trial_order_2B.csv,R
go,sst_images/Right_Arrow.bmp,2,0.1,0.748,2,1,0.4608324150030967,1.748,,033,sst_trial_order_2B.csv,R
stop,sst_images/Left_Arrow.bmp,none,0.05,0.848,1,0,0.36283437701058574,1.8851656229894143,,033,sst_trial_order_2B.csv,R
go,sst_images/Right_Arrow.bmp,2,0.05,0.733,2,1,0.4625737280002795,1.733,,033,sst_trial_order_2B.csv,R
stop,sst_images/Left_Arrow.bmp,None,0.1,0.822,,1,[],1.822,,033,sst_trial_order_2B.csv,R
go,sst_images/Left_Arrow.bmp,1,0.1,1.077,1,1,0.5024649770057295,2.077,,033,sst_trial_order_2B.csv,R
go,sst_images/Right_Arrow.bmp,2,0.1,0.895,2,1,0.45430251499055885,1.895,,033,sst_trial_order_2B.csv,R
go,sst_images/Left_Arrow.bmp,1,0.1,0.792,1,1,0.5044759660086129,1.792,,033,sst_trial_order_2B.csv,R
go,sst_images/Left_Arrow.bmp,1,0.1,0.741,1,1,0.502921105013229,1.741,,033,sst_trial_order_2B.csv,R
go,sst_images/Left_Arrow.bmp,1,0.1,0.923,1,1,0.46014108799863607,1.923,,033,sst_trial_order_2B.csv,R
stop,sst_images/Right_Arrow.bmp,none,0.15000000000000002,0.799,,1,[],1.7990000000000002,,033,sst_trial_order_2B.csv,R
go,sst_images/Right_Arrow.bmp,2,0.15000000000000002,0.836,2,1,0.45878923701820895,1.8359999999999999,,033,sst_trial_order_2B.csv,R
go,sst_images/Left_Arrow.bmp,1,0.15000000000000002,0.789,1,1,0.463344785006484,1.7890000000000001,,033,sst_trial_order_2B.csv,R
go,sst_images/Left_Arrow.bmp,1,0.15000000000000002,1.843,1,1,0.4633910660049878,2.843,,033,sst_trial_order_2B.csv,R
go,sst_images/Right_Arrow.bmp,2,0.15000000000000002,0.839,2,1,0.4642074440198485,1.839,,033,sst_trial_order_2B.csv,R
go,sst_images/Left_Arrow.bmp,1,0.15000000000000002,0.708,1,1,0.5056644770083949,1.708,,033,sst_trial_order_2B.csv,R
go,sst_images/Right_Arrow.bmp,2,0.15000000000000002,1.161,2,1,0.587198735011043,2.161,,033,sst_trial_order_2B.csv,R
stop,sst_images/Right_Arrow.bmp,none,0.2,0.897,,1,[],1.897,,033,sst_trial_order_2B.csv,R
go,sst_images/Left_Arrow.bmp,1,0.2,1.027,1,1,0.5046951650001574,2.027,,033,sst_trial_order_2B.csv,R
go,sst_images/Right_Arrow.bmp,2,0.2,0.724,2,1,0.5028053489804734,1.724,,033,sst_trial_order_2B.csv,R
stop,sst_images/Left_Arrow.bmp,none,0.25,0.733,,1,[],1.7329999999999999,,033,sst_trial_order_2B.csv,R
go,sst_images/Right_Arrow.bmp,2,0.25,0.924,2,1,0.5442121350206435,1.924,,033,sst_trial_order_2B.csv,R
go,sst_images/Left_Arrow.bmp,1,0.25,0.719,1,1,0.8798179889854509,1.7189999999999999,,033,sst_trial_order_2B.csv,R
go,sst_images/Right_Arrow.bmp,2,0.25,0.752,2,1,0.8328187779989094,1.752,,033,sst_trial_order_2B.csv,R
stop,sst_images/Right_Arrow.bmp,none,0.3,0.732,,1,[],1.732,,033,sst_trial_order_2B.csv,R
go,sst_images/Right_Arrow.bmp,2,0.3,0.813,2,1,0.7535940680245403,1.813,,033,sst_trial_order_2B.csv,R
go,sst_images/Left_Arrow.bmp,1,0.3,0.991,1,1,0.6277319480141159,1.991,,033,sst_trial_order_2B.csv,R
go,sst_images/Right_Arrow.bmp,2,0.3,0.81,2,1,0.5406710999959614,1.81,,033,sst_trial_order_2B.csv,R
go,sst_images/Left_Arrow.bmp,1,0.3,0.852,1,1,0.5852118429902475,1.8519999999999999,,033,sst_trial_order_2B.csv,R
stop,sst_images/Right_Arrow.bmp,none,0.35,1.038,,1,[],2.038,,033,sst_trial_order_2B.csv,R
go,sst_images/Left_Arrow.bmp,1,0.35,0.77,1,1,0.546918571984861,1.77,,033,sst_trial_order_2B.csv,R
go,sst_images/Right_Arrow.bmp,2,0.35,0.75,2,1,0.5006102379993536,1.75,,033,sst_trial_order_2B.csv,R
go,sst_images/Right_Arrow.bmp,2,0.35,0.879,2,1,0.6712464689917397,1.879,,033,sst_trial_order_2B.csv,R
go,sst_images/Left_Arrow.bmp,1,0.35,0.892,1,1,0.5447685880062636,1.892,,033,sst_trial_order_2B.csv,R
go,sst_images/Left_Arrow.bmp,1,0.35,0.75,1,1,0.6694302549876738,1.75,,033,sst_trial_order_2B.csv,R
stop,sst_images/Left_Arrow.bmp,none,0.3,0.777,1,0,0.565055555984145,1.8619444440158552,,033,sst_trial_order_2B.csv,R
go,sst_images/Right_Arrow.bmp,2,0.3,1.125,2,1,0.5872249370149802,2.125,,033,sst_trial_order_2B.csv,R
go,sst_images/Left_Arrow.bmp,1,0.3,1.067,1,1,0.5816173499915749,2.067,,033,sst_trial_order_2B.csv,R
go,sst_images/Left_Arrow.bmp,1,0.3,0.746,1,1,0.6296560619957745,1.746,,033,sst_trial_order_2B.csv,R
go,sst_images/Right_Arrow.bmp,2,0.3,0.826,2,1,0.6255684180068783,1.826,,033,sst_trial_order_2B.csv,R
go,sst_images/Right_Arrow.bmp,2,0.3,0.933,2,1,0.5889035110012628,1.933,,033,sst_trial_order_2B.csv,R
go,sst_images/Right_Arrow.bmp,2,0.3,1.204,2,1,0.7492268139903899,2.2039999999999997,,033,sst_trial_order_2B.csv,R
go,sst_images/Left_Arrow.bmp,1,0.3,0.877,1,1,0.5233347390021663,1.877,,033,sst_trial_order_2B.csv,R
go,sst_images/Left_Arrow.bmp,1,0.3,0.803,1,1,0.5845513599924743,1.803,,033,sst_trial_order_2B.csv,R
go,sst_images/Left_Arrow.bmp,1,0.3,1.076,1,1,0.5039005470171105,2.076,,033,sst_trial_order_2B.csv,R
stop,sst_images/Right_Arrow.bmp,none,0.25,0.724,2,0,0.5810010109853465,1.7429989890146536,,033,sst_trial_order_2B.csv,R
go,sst_images/Right_Arrow.bmp,2,0.25,0.756,2,1,0.43906205499661155,1.756,,033,sst_trial_order_2B.csv,R
go,sst_images/Right_Arrow.bmp,2,0.25,1.227,2,1,0.4626515049894806,2.2270000000000003,,033,sst_trial_order_2B.csv,R
go,sst_images/Left_Arrow.bmp,1,0.25,1.311,1,1,0.45552512299036607,2.311,,033,sst_trial_order_2B.csv,R
go,sst_images/Left_Arrow.bmp,1,0.25,0.822,1,1,0.46291071400628425,1.822,,033,sst_trial_order_2B.csv,R
go,sst_images/Left_Arrow.bmp,1,0.25,0.807,1,1,0.5404027030162979,1.807,,033,sst_trial_order_2B.csv,R
go,sst_images/Right_Arrow.bmp,2,0.25,0.852,2,1,0.5851213120040484,1.8519999999999999,,033,sst_trial_order_2B.csv,R
go,sst_images/Left_Arrow.bmp,1,0.25,0.817,1,1,0.7144522410235368,1.817,,033,sst_trial_order_2B.csv,R
go,sst_images/Left_Arrow.bmp,1,0.25,0.803,1,1,0.6697736880159937,1.803,,033,sst_trial_order_2B.csv,R
go,sst_images/Right_Arrow.bmp,2,0.25,0.746,2,1,0.5417916379810777,1.746,,033,sst_trial_order_2B.csv,R
go,sst_images/Right_Arrow.bmp,2,0.25,0.813,2,1,0.45628969799145125,1.813,,033,sst_trial_order_2B.csv,R
go,sst_images/Left_Arrow.bmp,1,0.25,0.966,1,1,0.5882482010056265,1.966,,033,sst_trial_order_2B.csv,R
go,sst_images/Right_Arrow.bmp,2,0.25,0.764,2,1,0.5870051130186766,1.764,,033,sst_trial_order_2B.csv,R
go,sst_images/Left_Arrow.bmp,1,0.25,1.038,1,1,0.6709749489964452,2.0380000000000003,,033,sst_trial_order_2B.csv,R
stop,sst_images/Left_Arrow.bmp,none,0.3,0.777,,1,[],1.777,,033,sst_trial_order_2B.csv,R
go,sst_images/Right_Arrow.bmp,2,0.3,0.949,2,1,0.5038811660197098,1.9489999999999998,,033,sst_trial_order_2B.csv,R
go,sst_images/Right_Arrow.bmp,2,0.3,0.806,2,1,0.6692051800200716,1.806,,033,sst_trial_order_2B.csv,R
go,sst_images/Left_Arrow.bmp,1,0.3,0.74,1,1,0.6694700210064184,1.74,,033,sst_trial_order_2B.csv,R
stop,sst_images/Right_Arrow.bmp,none,0.35,0.807,,1,[],1.8070000000000002,,033,sst_trial_order_2B.csv,R
go,sst_images/Right_Arrow.bmp,2,0.35,0.744,2,1,0.59138097599498,1.744,,033,sst_trial_order_2B.csv,R
go,sst_images/Left_Arrow.bmp,1,0.35,0.728,1,1,0.629630993003957,1.728,,033,sst_trial_order_2B.csv,R
stop,sst_images/Right_Arrow.bmp,none,0.39999999999999997,0.795,,1,[],1.7950000000000002,,033,sst_trial_order_2B.csv,R
go,sst_images/Right_Arrow.bmp,2,0.39999999999999997,0.944,2,1,0.42012612300459296,1.944,,033,sst_trial_order_2B.csv,R
go,sst_images/Left_Arrow.bmp,1,0.39999999999999997,1.047,1,1,0.4615221029962413,2.0469999999999997,,033,sst_trial_order_2B.csv,R
go,sst_images/Right_Arrow.bmp,2,0.39999999999999997,0.707,2,1,0.6285258189891465,1.7069999999999999,,033,sst_trial_order_2B.csv,R
stop,sst_images/Left_Arrow.bmp,none,0.35,1.066,1,0,0.5258425640058704,2.2401574359941296,,033,sst_trial_order_2B.csv,R
go,sst_images/Right_Arrow.bmp,2,0.35,1.27,2,1,0.42004893597913906,2.27,,033,sst_trial_order_2B.csv,R
go,sst_images/Left_Arrow.bmp,1,0.35,0.708,1,1,0.5460127120022662,1.708,,033,sst_trial_order_2B.csv,R
go,sst_images/Left_Arrow.bmp,1,0.35,0.724,1,1,0.6286007270100527,1.724,,033,sst_trial_order_2B.csv,R
go,sst_images/Right_Arrow.bmp,2,0.35,0.739,2,1,0.5444975979917217,1.7389999999999999,,033,sst_trial_order_2B.csv,R
go,sst_images/Right_Arrow.bmp,2,0.35,0.75,2,1,0.3785631360078696,1.75,,033,sst_trial_order_2B.csv,R
stop,sst_images/Right_Arrow.bmp,none,0.3,0.833,2,0,0.4570935579831712,2.0259064420168285,,033,sst_trial_order_2B.csv,R
go,sst_images/Right_Arrow.bmp,2,0.3,1.062,2,1,0.548353544989368,2.0620000000000003,,033,sst_trial_order_2B.csv,R
go,sst_images/Left_Arrow.bmp,1,0.3,1.279,1,1,0.6287382820155472,2.279,,033,sst_trial_order_2B.csv,R
go,sst_images/Left_Arrow.bmp,1,0.3,1.154,1,1,0.5456090000225231,2.154,,033,sst_trial_order_2B.csv,R
go,sst_images/Right_Arrow.bmp,2,0.3,1.101,2,1,0.6291335450077895,2.101,,033,sst_trial_order_2B.csv,R
go,sst_images/Left_Arrow.bmp,1,0.3,0.993,1,1,0.5468367509893142,1.9929999999999999,,033,sst_trial_order_2B.csv,R
go,sst_images/Right_Arrow.bmp,2,0.3,0.884,2,1,0.5459296820044983,1.884,,033,sst_trial_order_2B.csv,R
go,sst_images/Left_Arrow.bmp,1,0.3,0.932,1,1,0.628233552997699,1.932,,033,sst_trial_order_2B.csv,R
stop,sst_images/Right_Arrow.bmp,none,0.25,0.966,2,0,0.4422594429925084,2.1237405570074914,,033,sst_trial_order_2B.csv,R
go,sst_images/Right_Arrow.bmp,2,0.25,0.898,2,1,0.46283040702110156,1.8980000000000001,,033,sst_trial_order_2B.csv,R
go,sst_images/Left_Arrow.bmp,1,0.25,0.922,1,1,0.5042931550124194,1.9220000000000002,,033,sst_trial_order_2B.csv,R
go,sst_images/Left_Arrow.bmp,1,0.25,0.834,1,1,0.5044684080057777,1.834,,033,sst_trial_order_2B.csv,R
stop,sst_images/Left_Arrow.bmp,none,0.3,0.782,,1,[],1.782,,033,sst_trial_order_2B.csv,R
go,sst_images/Left_Arrow.bmp,1,0.3,0.806,1,1,0.5864456139970571,1.806,,033,sst_trial_order_2B.csv,R
go,sst_images/Right_Arrow.bmp,2,0.3,0.804,2,1,0.7549479829904158,1.804,,033,sst_trial_order_2B.csv,R
go,sst_images/Left_Arrow.bmp,1,0.3,1.001,1,1,0.6647326980018988,2.001,,033,sst_trial_order_2B.csv,R
go,sst_images/Right_Arrow.bmp,2,0.3,0.99,2,1,0.6276154539955314,1.99,,033,sst_trial_order_2B.csv,R
stop,sst_images/Left_Arrow.bmp,none,0.25,0.803,1,0,0.535383737005759,1.867616262994241,,033,sst_trial_order_2B.csv,R
go,sst_images/Right_Arrow.bmp,2,0.25,0.755,2,1,0.4912823060003575,1.755,,033,sst_trial_order_2B.csv,R
go,sst_images/Left_Arrow.bmp,1,0.25,1.222,1,1,0.5443502639827784,2.222,,033,sst_trial_order_2B.csv,R
go,sst_images/Right_Arrow.bmp,2,0.25,0.752,2,1,0.626843465026468,1.752,,033,sst_trial_order_2B.csv,R
go,sst_images/Right_Arrow.bmp,2,0.25,1.001,,0,[],2.001,,033,sst_trial_order_2B.csv,R
go,sst_images/Left_Arrow.bmp,1,0.25,1.372,1,1,0.5400865100091323,2.372,,033,sst_trial_order_2B.csv,R
go,sst_images/Left_Arrow.bmp,1,0.25,0.782,1,1,0.545459415006917,1.782,,033,sst_trial_order_2B.csv,R
stop,sst_images/Right_Arrow.bmp,none,0.2,0.737,2,0,0.5286117950163316,1.7583882049836685,,033,sst_trial_order_2B.csv,R
go,sst_images/Right_Arrow.bmp,2,0.2,0.951,2,1,0.5042789790022653,1.951,,033,sst_trial_order_2B.csv,R
go,sst_images/Right_Arrow.bmp,2,0.2,0.735,2,1,0.5059420350007713,1.7349999999999999,,033,sst_trial_order_2B.csv,R
stop,sst_images/Left_Arrow.bmp,none,0.25,0.838,,1,[],1.8379999999999999,,033,sst_trial_order_2B.csv,R
go,sst_images/Left_Arrow.bmp,1,0.25,1.006,1,1,0.5040340950072277,2.0060000000000002,,033,sst_trial_order_2B.csv,R
go,sst_images/Right_Arrow.bmp,2,0.25,0.78,2,1,0.502033467986621,1.78,,033,sst_trial_order_2B.csv,R
go,sst_images/Left_Arrow.bmp,1,0.25,1.109,1,1,0.5470114280178677,2.109,,033,sst_trial_order_2B.csv,R
stop,sst_images/Left_Arrow.bmp,none,0.2,1.062,1,0,0.5897778350044973,2.022222164995503,,033,sst_trial_order_2B.csv,R
go,sst_images/Right_Arrow.bmp,2,0.2,0.898,2,1,0.5853442490042653,1.8980000000000001,,033,sst_trial_order_2B.csv,R
go,sst_images/Left_Arrow.bmp,1,0.2,0.926,,0,[],1.9260000000000002,,033,sst_trial_order_2B.csv,R
go,sst_images/Right_Arrow.bmp,2,0.2,0.702,2,1,0.5454664439894259,1.702,,033,sst_trial_order_2B.csv,R
stop,sst_images/Right_Arrow.bmp,none,0.15000000000000002,0.748,2,0,0.4454777990176808,1.8025222009823192,,033,sst_trial_order_2B.csv,R
go,sst_images/Left_Arrow.bmp,1,0.15000000000000002,0.823,1,1,0.7132703970128205,1.823,,033,sst_trial_order_2B.csv,R
go,sst_images/Right_Arrow.bmp,2,0.15000000000000002,0.918,2,1,0.6705931329925079,1.9180000000000001,,033,sst_trial_order_2B.csv,R
go,sst_images/Left_Arrow.bmp,1,0.15000000000000002,1.074,1,1,0.6250307879818138,2.074,,033,sst_trial_order_2B.csv,R
go,sst_images/Right_Arrow.bmp,2,0.15000000000000002,0.783,2,1,0.6289160749875009,1.783,,033,sst_trial_order_2B.csv,R
go,sst_images/Left_Arrow.bmp,1,0.15000000000000002,0.719,,0,[],1.7189999999999999,,033,sst_trial_order_2B.csv,R
stop,sst_images/Left_Arrow.bmp,none,0.2,0.817,,1,[],1.817,,033,sst_trial_order_2B.csv,R
go,sst_images/Right_Arrow.bmp,2,0.2,0.737,2,1,0.4207566339755431,1.737,,033,sst_trial_order_2B.csv,R
go,sst_images/Right_Arrow.bmp,2,0.2,0.741,2,1,0.5024622890050523,1.741,,033,sst_trial_order_2B.csv,R
go,sst_images/Left_Arrow.bmp,1,0.2,0.834,1,1,0.5021807549928781,1.834,,033,sst_trial_order_2B.csv,R
go,sst_images/Left_Arrow.bmp,1,0.2,0.859,1,1,0.3994628310028929,1.859,,033,sst_trial_order_2B.csv,R
go,sst_images/Left_Arrow.bmp,1,0.2,0.825,1,1,0.5043888780055568,1.825,,033,sst_trial_order_2B.csv,R
stop,sst_images/Right_Arrow.bmp,none,0.25,0.773,,1,[],1.773,,033,sst_trial_order_2B.csv,R
go,sst_images/Right_Arrow.bmp,2,0.25,0.751,2,1,0.4598443029972259,1.751,,033,sst_trial_order_2B.csv,R
go,sst_images/Left_Arrow.bmp,1,0.25,0.965,1,1,0.5038088159926701,1.9649999999999999,,033,sst_trial_order_2B.csv,R
go,sst_images/Left_Arrow.bmp,1,0.25,1.26,,0,[],2.26,,033,sst_trial_order_2B.csv,R
go,sst_images/Left_Arrow.bmp,1,0.25,1.016,1,1,0.6320844799920451,2.016,,033,sst_trial_order_2B.csv,R
go,sst_images/Right_Arrow.bmp,2,0.25,1.049,2,1,0.5009198329935316,2.049,,033,sst_trial_order_2B.csv,R
go,sst_images/Left_Arrow.bmp,1,0.25,0.732,1,1,0.4636491700075567,1.732,,033,sst_trial_order_2B.csv,R
stop,sst_images/Right_Arrow.bmp,none,0.2,1.211,2,0,0.4032609519781545,2.3577390480218456,,033,sst_trial_order_2B.csv,R
go,sst_images/Left_Arrow.bmp,1,0.2,0.864,1,1,0.5006401689897757,1.8639999999999999,,033,sst_trial_order_2B.csv,R
go,sst_images/Right_Arrow.bmp,2,0.2,0.877,2,1,0.5465652300044894,1.877,,033,sst_trial_order_2B.csv,R
go,sst_images/Right_Arrow.bmp,2,0.2,1.038,2,1,0.5856222139846068,2.0380000000000003,,033,sst_trial_order_2B.csv,R
go,sst_images/Left_Arrow.bmp,1,0.2,0.744,1,1,0.5882064339821227,1.744,,033,sst_trial_order_2B.csv,R
stop,sst_images/Left_Arrow.bmp,none,0.25,0.741,,1,[],1.7409999999999999,,033,sst_trial_order_2B.csv,R
go,sst_images/Right_Arrow.bmp,2,0.25,0.748,2,1,0.46324143500532955,1.748,,033,sst_trial_order_2B.csv,R
go,sst_images/Left_Arrow.bmp,1,0.25,0.822,1,1,0.5854486089956481,1.822,,033,sst_trial_order_2B.csv,R
go,sst_images/Left_Arrow.bmp,1,0.25,0.916,1,1,0.5879260009969585,1.916,,033,sst_trial_order_2B.csv,R
go,sst_images/Right_Arrow.bmp,2,0.25,0.715,2,1,0.5040832019876689,1.7149999999999999,,033,sst_trial_order_2B.csv,R
stop,sst_images/Left_Arrow.bmp,none,0.3,1.726,,1,[],2.726,,033,sst_trial_order_2B.csv,R
go,sst_images/Left_Arrow.bmp,1,0.3,0.782,1,1,0.5855223439866677,1.782,,033,sst_trial_order_2B.csv,R
go,sst_images/Right_Arrow.bmp,2,0.3,1.726,2,1,0.7520889980078209,2.726,,033,sst_trial_order_2B.csv,R
go,sst_images/Left_Arrow.bmp,1,0.3,0.953,1,1,0.5833513149991632,1.9529999999999998,,033,sst_trial_order_2B.csv,R
go,sst_images/Right_Arrow.bmp,2,0.3,0.844,2,1,0.7528523050132208,1.8439999999999999,,033,sst_trial_order_2B.csv,R
go,sst_images/Right_Arrow.bmp,2,0.3,0.8,2,1,0.8731040639977437,1.8,,033,sst_trial_order_2B.csv,R
go,sst_images/Left_Arrow.bmp,1,0.3,1.025,,0,[],2.025,,033,sst_trial_order_2B.csv,R
go,sst_images/Right_Arrow.bmp,2,0.3,0.818,2,1,0.6668525350105483,1.818,,033,sst_trial_order_2B.csv,R
go,sst_images/Left_Arrow.bmp,1,0.3,0.861,1,1,0.7145788150082808,1.861,,033,sst_trial_order_2B.csv,R
go,sst_images/Right_Arrow.bmp,2,0.3,1.006,2,1,0.6197185979981441,2.0060000000000002,,033,sst_trial_order_2B.csv,R
go,sst_images/Left_Arrow.bmp,1,0.3,0.939,1,1,0.8795713209838141,1.939,,033,sst_trial_order_2B.csv,R
stop,sst_images/Left_Arrow.bmp,none,0.25,0.703,1,0,0.5230464109918103,1.7799535890081897,,033,sst_trial_order_2B.csv,R
go,sst_images/Right_Arrow.bmp,2,0.25,1.064,2,1,0.6695640340039972,2.064,,033,sst_trial_order_2B.csv,R
go,sst_images/Left_Arrow.bmp,1,0.25,1.694,1,1,0.8382955910055898,2.694,,033,sst_trial_order_2B.csv,R
go,sst_images/Left_Arrow.bmp,1,0.25,0.936,1,1,0.6653174039965961,1.936,,033,sst_trial_order_2B.csv,R
go,sst_images/Right_Arrow.bmp,2,0.25,0.725,2,1,0.6704476269951556,1.725,,033,sst_trial_order_2B.csv,R
go,sst_images/Left_Arrow.bmp,1,0.25,0.777,,0,[],1.7770000000000001,,033,sst_trial_order_2B.csv,R
go,sst_images/Right_Arrow.bmp,2,0.25,1.07,2,1,0.4618046219984535,2.0700000000000003,,033,sst_trial_order_2B.csv,R
go,sst_images/Right_Arrow.bmp,2,0.25,1.006,2,1,0.4616351779841352,2.0060000000000002,,033,sst_trial_order_2B.csv,R
go,sst_images/Right_Arrow.bmp,2,0.25,0.799,2,1,0.4192762129823677,1.799,,033,sst_trial_order_2B.csv,R
go,sst_images/Left_Arrow.bmp,1,0.25,0.769,2,0,0.42117058602161705,1.7690000000000001,,033,sst_trial_order_2B.csv,R
go,sst_images/Right_Arrow.bmp,2,0.25,0.709,2,1,0.460612081020372,1.709,,033,sst_trial_order_2B.csv,R
stop,sst_images/Right_Arrow.bmp,none,0.2,0.834,2,0,0.5283871160063427,1.8556128839936574,,033,sst_trial_order_2B.csv,R
go,sst_images/Right_Arrow.bmp,2,0.2,0.742,2,1,0.5451413739938289,1.742,,033,sst_trial_order_2B.csv,R
go,sst_images/Left_Arrow.bmp,1,0.2,1.211,1,1,0.5060619279975072,2.2110000000000003,,033,sst_trial_order_2B.csv,R
go,sst_images/Right_Arrow.bmp,2,0.2,0.885,2,1,0.7117794079822488,1.885,,033,sst_trial_order_2B.csv,R
go,sst_images/Right_Arrow.bmp,2,0.2,1.12,2,1,0.5116188209794927,2.12,,033,sst_trial_order_2B.csv,R
go,sst_images/Right_Arrow.bmp,2,0.2,1.103,2,1,0.7124422529886942,2.1029999999999998,,033,sst_trial_order_2B.csv,R
go,sst_images/Left_Arrow.bmp,1,0.2,0.717,1,1,0.5876962250040378,1.717,,033,sst_trial_order_2B.csv,R
go,sst_images/Right_Arrow.bmp,2,0.2,0.897,2,1,0.7538611740164924,1.897,,033,sst_trial_order_2B.csv,R
stop,sst_images/Left_Arrow.bmp,none,0.15000000000000002,0.744,1,0,0.5455164260056335,1.6984835739943664,,033,sst_trial_order_2B.csv,R
go,sst_images/Left_Arrow.bmp,1,0.15000000000000002,0.805,1,1,0.6260036030143965,1.8050000000000002,,033,sst_trial_order_2B.csv,R
go,sst_images/Right_Arrow.bmp,2,0.15000000000000002,0.793,2,1,0.8396722130128182,1.7930000000000001,,033,sst_trial_order_2B.csv,R
