trial_type,arrow_1,arrow_2,corrAns,jitter,run_end_fixation,trials.thisRepN,trials.thisTrialN,trials.thisN,trials.thisIndex,randomized TrialOrder,key_response.keys,key_response.corr,key_response.rt,trial_t.routineEndVal,ss_delay,iti_duration,SOA,participant,prac_or_scan,handedness,run,date,expName,psychopyVersion,frameRate,
go,sst_images/Left_Arrow.bmp,None,1,975,None,0,0,0,0,2,1,1,0.6857511559792329,go,0.05,0.975,1.975,033,Scanner,R,2,2019_Aug_27_1237,SST,3.0.7,23.994695790485174,
go,sst_images/Right_Arrow.bmp,None,2,775,None,0,1,1,1,,2,1,0.5044062359957024,go,0.05,0.775,1.775,033,Scanner,R,2,2019_Aug_27_1237,SST,3.0.7,23.994695790485174,
go,sst_images/Right_Arrow.bmp,None,2,773,None,0,2,2,2,,2,1,0.46466965501895174,go,0.05,0.773,1.7730000000000001,033,Scanner,R,2,2019_Aug_27_1237,SST,3.0.7,23.994695790485174,
go,sst_images/Left_Arrow.bmp,None,1,747,None,0,3,3,3,,1,1,0.5042405750136822,go,0.05,0.747,1.7469999999999999,033,Scanner,R,2,2019_Aug_27_1237,SST,3.0.7,23.994695790485174,
stop,sst_images/Right_Arrow.bmp,sst_images/Stop_Arrow.bmp,none,709,None,0,4,4,4,,None,1,,stop,0.1,0.709,1.709,033,Scanner,R,2,2019_Aug_27_1237,SST,3.0.7,23.994695790485174,
go,sst_images/Left_Arrow.bmp,None,1,702,None,0,5,5,5,,1,1,0.5531851759878919,go,0.1,0.702,1.702,033,Scanner,R,2,2019_Aug_27_1237,SST,3.0.7,23.994695790485174,
go,sst_images/Right_Arrow.bmp,None,2,931,None,0,6,6,6,,2,1,0.4978009590122383,go,0.1,0.931,1.931,033,Scanner,R,2,2019_Aug_27_1237,SST,3.0.7,23.994695790485174,
go,sst_images/Left_Arrow.bmp,None,1,1149,None,0,7,7,7,,1,1,0.46140287499292754,go,0.1,1.149,2.149,033,Scanner,R,2,2019_Aug_27_1237,SST,3.0.7,23.994695790485174,
go,sst_images/Right_Arrow.bmp,None,2,748,None,0,8,8,8,,2,1,0.4608324150030967,go,0.1,0.748,1.748,033,Scanner,R,2,2019_Aug_27_1237,SST,3.0.7,23.994695790485174,
stop,sst_images/Left_Arrow.bmp,sst_images/Stop_Arrow.bmp,none,848,None,0,9,9,9,,1,0,0.36283437701058574,stop,0.05,0.848,1.8851656229894143,033,Scanner,R,2,2019_Aug_27_1237,SST,3.0.7,23.994695790485174,
go,sst_images/Right_Arrow.bmp,None,2,733,None,0,10,10,10,,2,1,0.4625737280002795,go,0.05,0.733,1.733,033,Scanner,R,2,2019_Aug_27_1237,SST,3.0.7,23.994695790485174,
stop,sst_images/Left_Arrow.bmp,None,None,822,None,0,11,11,11,,None,1,,stop,0.1,0.822,1.822,033,Scanner,R,2,2019_Aug_27_1237,SST,3.0.7,23.994695790485174,
go,sst_images/Left_Arrow.bmp,None,1,1077,None,0,12,12,12,,1,1,0.5024649770057295,go,0.1,1.077,2.077,033,Scanner,R,2,2019_Aug_27_1237,SST,3.0.7,23.994695790485174,
go,sst_images/Right_Arrow.bmp,None,2,895,None,0,13,13,13,,2,1,0.45430251499055885,go,0.1,0.895,1.895,033,Scanner,R,2,2019_Aug_27_1237,SST,3.0.7,23.994695790485174,
go,sst_images/Left_Arrow.bmp,None,1,792,None,0,14,14,14,,1,1,0.5044759660086129,go,0.1,0.792,1.792,033,Scanner,R,2,2019_Aug_27_1237,SST,3.0.7,23.994695790485174,
go,sst_images/Left_Arrow.bmp,None,1,741,None,0,15,15,15,,1,1,0.502921105013229,go,0.1,0.741,1.741,033,Scanner,R,2,2019_Aug_27_1237,SST,3.0.7,23.994695790485174,
go,sst_images/Left_Arrow.bmp,None,1,923,None,0,16,16,16,,1,1,0.46014108799863607,go,0.1,0.923,1.923,033,Scanner,R,2,2019_Aug_27_1237,SST,3.0.7,23.994695790485174,
stop,sst_images/Right_Arrow.bmp,sst_images/Stop_Arrow.bmp,none,799,None,0,17,17,17,,None,1,,stop,0.15000000000000002,0.799,1.7990000000000002,033,Scanner,R,2,2019_Aug_27_1237,SST,3.0.7,23.994695790485174,
go,sst_images/Right_Arrow.bmp,None,2,836,None,0,18,18,18,,2,1,0.45878923701820895,go,0.15000000000000002,0.836,1.8359999999999999,033,Scanner,R,2,2019_Aug_27_1237,SST,3.0.7,23.994695790485174,
go,sst_images/Left_Arrow.bmp,None,1,789,None,0,19,19,19,,1,1,0.463344785006484,go,0.15000000000000002,0.789,1.7890000000000001,033,Scanner,R,2,2019_Aug_27_1237,SST,3.0.7,23.994695790485174,
go,sst_images/Left_Arrow.bmp,None,1,1843,None,0,20,20,20,,1,1,0.4633910660049878,go,0.15000000000000002,1.843,2.843,033,Scanner,R,2,2019_Aug_27_1237,SST,3.0.7,23.994695790485174,
go,sst_images/Right_Arrow.bmp,None,2,839,None,0,21,21,21,,2,1,0.4642074440198485,go,0.15000000000000002,0.839,1.839,033,Scanner,R,2,2019_Aug_27_1237,SST,3.0.7,23.994695790485174,
go,sst_images/Left_Arrow.bmp,None,1,708,None,0,22,22,22,,1,1,0.5056644770083949,go,0.15000000000000002,0.708,1.708,033,Scanner,R,2,2019_Aug_27_1237,SST,3.0.7,23.994695790485174,
go,sst_images/Right_Arrow.bmp,None,2,1161,None,0,23,23,23,,2,1,0.587198735011043,go,0.15000000000000002,1.161,2.161,033,Scanner,R,2,2019_Aug_27_1237,SST,3.0.7,23.994695790485174,
stop,sst_images/Right_Arrow.bmp,sst_images/Stop_Arrow.bmp,none,897,None,0,24,24,24,,None,1,,stop,0.2,0.897,1.897,033,Scanner,R,2,2019_Aug_27_1237,SST,3.0.7,23.994695790485174,
go,sst_images/Left_Arrow.bmp,None,1,1027,None,0,25,25,25,,1,1,0.5046951650001574,go,0.2,1.027,2.027,033,Scanner,R,2,2019_Aug_27_1237,SST,3.0.7,23.994695790485174,
go,sst_images/Right_Arrow.bmp,None,2,724,None,0,26,26,26,,2,1,0.5028053489804734,go,0.2,0.724,1.724,033,Scanner,R,2,2019_Aug_27_1237,SST,3.0.7,23.994695790485174,
stop,sst_images/Left_Arrow.bmp,sst_images/Stop_Arrow.bmp,none,733,None,0,27,27,27,,None,1,,stop,0.25,0.733,1.7329999999999999,033,Scanner,R,2,2019_Aug_27_1237,SST,3.0.7,23.994695790485174,
go,sst_images/Right_Arrow.bmp,None,2,924,None,0,28,28,28,,2,1,0.5442121350206435,go,0.25,0.924,1.924,033,Scanner,R,2,2019_Aug_27_1237,SST,3.0.7,23.994695790485174,
go,sst_images/Left_Arrow.bmp,None,1,719,None,0,29,29,29,,1,1,0.8798179889854509,go,0.25,0.719,1.7189999999999999,033,Scanner,R,2,2019_Aug_27_1237,SST,3.0.7,23.994695790485174,
go,sst_images/Right_Arrow.bmp,None,2,752,None,0,30,30,30,,2,1,0.8328187779989094,go,0.25,0.752,1.752,033,Scanner,R,2,2019_Aug_27_1237,SST,3.0.7,23.994695790485174,
stop,sst_images/Right_Arrow.bmp,sst_images/Stop_Arrow.bmp,none,732,None,0,31,31,31,,None,1,,stop,0.3,0.732,1.732,033,Scanner,R,2,2019_Aug_27_1237,SST,3.0.7,23.994695790485174,
go,sst_images/Right_Arrow.bmp,None,2,813,None,0,32,32,32,,2,1,0.7535940680245403,go,0.3,0.813,1.813,033,Scanner,R,2,2019_Aug_27_1237,SST,3.0.7,23.994695790485174,
go,sst_images/Left_Arrow.bmp,None,1,991,None,0,33,33,33,,1,1,0.6277319480141159,go,0.3,0.991,1.991,033,Scanner,R,2,2019_Aug_27_1237,SST,3.0.7,23.994695790485174,
go,sst_images/Right_Arrow.bmp,None,2,810,None,0,34,34,34,,2,1,0.5406710999959614,go,0.3,0.81,1.81,033,Scanner,R,2,2019_Aug_27_1237,SST,3.0.7,23.994695790485174,
go,sst_images/Left_Arrow.bmp,None,1,852,None,0,35,35,35,,1,1,0.5852118429902475,go,0.3,0.852,1.8519999999999999,033,Scanner,R,2,2019_Aug_27_1237,SST,3.0.7,23.994695790485174,
stop,sst_images/Right_Arrow.bmp,sst_images/Stop_Arrow.bmp,none,1038,None,0,36,36,36,,None,1,,stop,0.35,1.038,2.038,033,Scanner,R,2,2019_Aug_27_1237,SST,3.0.7,23.994695790485174,
go,sst_images/Left_Arrow.bmp,None,1,770,None,0,37,37,37,,1,1,0.546918571984861,go,0.35,0.77,1.77,033,Scanner,R,2,2019_Aug_27_1237,SST,3.0.7,23.994695790485174,
go,sst_images/Right_Arrow.bmp,None,2,750,None,0,38,38,38,,2,1,0.5006102379993536,go,0.35,0.75,1.75,033,Scanner,R,2,2019_Aug_27_1237,SST,3.0.7,23.994695790485174,
go,sst_images/Right_Arrow.bmp,None,2,879,None,0,39,39,39,,2,1,0.6712464689917397,go,0.35,0.879,1.879,033,Scanner,R,2,2019_Aug_27_1237,SST,3.0.7,23.994695790485174,
go,sst_images/Left_Arrow.bmp,None,1,892,None,0,40,40,40,,1,1,0.5447685880062636,go,0.35,0.892,1.892,033,Scanner,R,2,2019_Aug_27_1237,SST,3.0.7,23.994695790485174,
go,sst_images/Left_Arrow.bmp,None,1,750,None,0,41,41,41,,1,1,0.6694302549876738,go,0.35,0.75,1.75,033,Scanner,R,2,2019_Aug_27_1237,SST,3.0.7,23.994695790485174,
stop,sst_images/Left_Arrow.bmp,sst_images/Stop_Arrow.bmp,none,777,None,0,42,42,42,,1,0,0.565055555984145,stop,0.3,0.777,1.8619444440158552,033,Scanner,R,2,2019_Aug_27_1237,SST,3.0.7,23.994695790485174,
go,sst_images/Right_Arrow.bmp,None,2,1125,None,0,43,43,43,,2,1,0.5872249370149802,go,0.3,1.125,2.125,033,Scanner,R,2,2019_Aug_27_1237,SST,3.0.7,23.994695790485174,
go,sst_images/Left_Arrow.bmp,None,1,1067,None,0,44,44,44,,1,1,0.5816173499915749,go,0.3,1.067,2.067,033,Scanner,R,2,2019_Aug_27_1237,SST,3.0.7,23.994695790485174,
go,sst_images/Left_Arrow.bmp,None,1,746,None,0,45,45,45,,1,1,0.6296560619957745,go,0.3,0.746,1.746,033,Scanner,R,2,2019_Aug_27_1237,SST,3.0.7,23.994695790485174,
go,sst_images/Right_Arrow.bmp,None,2,826,None,0,46,46,46,,2,1,0.6255684180068783,go,0.3,0.826,1.826,033,Scanner,R,2,2019_Aug_27_1237,SST,3.0.7,23.994695790485174,
go,sst_images/Right_Arrow.bmp,None,2,933,None,0,47,47,47,,2,1,0.5889035110012628,go,0.3,0.933,1.933,033,Scanner,R,2,2019_Aug_27_1237,SST,3.0.7,23.994695790485174,
go,sst_images/Right_Arrow.bmp,None,2,1204,None,0,48,48,48,,2,1,0.7492268139903899,go,0.3,1.204,2.2039999999999997,033,Scanner,R,2,2019_Aug_27_1237,SST,3.0.7,23.994695790485174,
go,sst_images/Left_Arrow.bmp,None,1,877,None,0,49,49,49,,1,1,0.5233347390021663,go,0.3,0.877,1.877,033,Scanner,R,2,2019_Aug_27_1237,SST,3.0.7,23.994695790485174,
go,sst_images/Left_Arrow.bmp,None,1,803,None,0,50,50,50,,1,1,0.5845513599924743,go,0.3,0.803,1.803,033,Scanner,R,2,2019_Aug_27_1237,SST,3.0.7,23.994695790485174,
go,sst_images/Left_Arrow.bmp,None,1,1076,None,0,51,51,51,,1,1,0.5039005470171105,go,0.3,1.076,2.076,033,Scanner,R,2,2019_Aug_27_1237,SST,3.0.7,23.994695790485174,
stop,sst_images/Right_Arrow.bmp,sst_images/Stop_Arrow.bmp,none,724,None,0,52,52,52,,2,0,0.5810010109853465,stop,0.25,0.724,1.7429989890146536,033,Scanner,R,2,2019_Aug_27_1237,SST,3.0.7,23.994695790485174,
go,sst_images/Right_Arrow.bmp,None,2,756,None,0,53,53,53,,2,1,0.43906205499661155,go,0.25,0.756,1.756,033,Scanner,R,2,2019_Aug_27_1237,SST,3.0.7,23.994695790485174,
go,sst_images/Right_Arrow.bmp,None,2,1227,None,0,54,54,54,,2,1,0.4626515049894806,go,0.25,1.227,2.2270000000000003,033,Scanner,R,2,2019_Aug_27_1237,SST,3.0.7,23.994695790485174,
go,sst_images/Left_Arrow.bmp,None,1,1311,None,0,55,55,55,,1,1,0.45552512299036607,go,0.25,1.311,2.311,033,Scanner,R,2,2019_Aug_27_1237,SST,3.0.7,23.994695790485174,
go,sst_images/Left_Arrow.bmp,None,1,822,None,0,56,56,56,,1,1,0.46291071400628425,go,0.25,0.822,1.822,033,Scanner,R,2,2019_Aug_27_1237,SST,3.0.7,23.994695790485174,
go,sst_images/Left_Arrow.bmp,None,1,807,None,0,57,57,57,,1,1,0.5404027030162979,go,0.25,0.807,1.807,033,Scanner,R,2,2019_Aug_27_1237,SST,3.0.7,23.994695790485174,
go,sst_images/Right_Arrow.bmp,None,2,852,None,0,58,58,58,,2,1,0.5851213120040484,go,0.25,0.852,1.8519999999999999,033,Scanner,R,2,2019_Aug_27_1237,SST,3.0.7,23.994695790485174,
go,sst_images/Left_Arrow.bmp,None,1,817,None,0,59,59,59,,1,1,0.7144522410235368,go,0.25,0.817,1.817,033,Scanner,R,2,2019_Aug_27_1237,SST,3.0.7,23.994695790485174,
go,sst_images/Left_Arrow.bmp,None,1,803,None,0,60,60,60,,1,1,0.6697736880159937,go,0.25,0.803,1.803,033,Scanner,R,2,2019_Aug_27_1237,SST,3.0.7,23.994695790485174,
go,sst_images/Right_Arrow.bmp,None,2,746,None,0,61,61,61,,2,1,0.5417916379810777,go,0.25,0.746,1.746,033,Scanner,R,2,2019_Aug_27_1237,SST,3.0.7,23.994695790485174,
go,sst_images/Right_Arrow.bmp,None,2,813,None,0,62,62,62,,2,1,0.45628969799145125,go,0.25,0.813,1.813,033,Scanner,R,2,2019_Aug_27_1237,SST,3.0.7,23.994695790485174,
go,sst_images/Left_Arrow.bmp,None,1,966,None,0,63,63,63,,1,1,0.5882482010056265,go,0.25,0.966,1.966,033,Scanner,R,2,2019_Aug_27_1237,SST,3.0.7,23.994695790485174,
go,sst_images/Right_Arrow.bmp,None,2,764,None,0,64,64,64,,2,1,0.5870051130186766,go,0.25,0.764,1.764,033,Scanner,R,2,2019_Aug_27_1237,SST,3.0.7,23.994695790485174,
go,sst_images/Left_Arrow.bmp,None,1,1038,None,0,65,65,65,,1,1,0.6709749489964452,go,0.25,1.038,2.0380000000000003,033,Scanner,R,2,2019_Aug_27_1237,SST,3.0.7,23.994695790485174,
stop,sst_images/Left_Arrow.bmp,sst_images/Stop_Arrow.bmp,none,777,None,0,66,66,66,,None,1,,stop,0.3,0.777,1.777,033,Scanner,R,2,2019_Aug_27_1237,SST,3.0.7,23.994695790485174,
go,sst_images/Right_Arrow.bmp,None,2,949,None,0,67,67,67,,2,1,0.5038811660197098,go,0.3,0.949,1.9489999999999998,033,Scanner,R,2,2019_Aug_27_1237,SST,3.0.7,23.994695790485174,
go,sst_images/Right_Arrow.bmp,None,2,806,None,0,68,68,68,,2,1,0.6692051800200716,go,0.3,0.806,1.806,033,Scanner,R,2,2019_Aug_27_1237,SST,3.0.7,23.994695790485174,
go,sst_images/Left_Arrow.bmp,None,1,740,None,0,69,69,69,,1,1,0.6694700210064184,go,0.3,0.74,1.74,033,Scanner,R,2,2019_Aug_27_1237,SST,3.0.7,23.994695790485174,
stop,sst_images/Right_Arrow.bmp,sst_images/Stop_Arrow.bmp,none,807,None,0,70,70,70,,None,1,,stop,0.35,0.807,1.8070000000000002,033,Scanner,R,2,2019_Aug_27_1237,SST,3.0.7,23.994695790485174,
go,sst_images/Right_Arrow.bmp,None,2,744,None,0,71,71,71,,2,1,0.59138097599498,go,0.35,0.744,1.744,033,Scanner,R,2,2019_Aug_27_1237,SST,3.0.7,23.994695790485174,
go,sst_images/Left_Arrow.bmp,None,1,728,None,0,72,72,72,,1,1,0.629630993003957,go,0.35,0.728,1.728,033,Scanner,R,2,2019_Aug_27_1237,SST,3.0.7,23.994695790485174,
stop,sst_images/Right_Arrow.bmp,sst_images/Stop_Arrow.bmp,none,795,None,0,73,73,73,,None,1,,stop,0.39999999999999997,0.795,1.7950000000000002,033,Scanner,R,2,2019_Aug_27_1237,SST,3.0.7,23.994695790485174,
go,sst_images/Right_Arrow.bmp,None,2,944,None,0,74,74,74,,2,1,0.42012612300459296,go,0.39999999999999997,0.944,1.944,033,Scanner,R,2,2019_Aug_27_1237,SST,3.0.7,23.994695790485174,
go,sst_images/Left_Arrow.bmp,None,1,1047,None,0,75,75,75,,1,1,0.4615221029962413,go,0.39999999999999997,1.047,2.0469999999999997,033,Scanner,R,2,2019_Aug_27_1237,SST,3.0.7,23.994695790485174,
go,sst_images/Right_Arrow.bmp,None,2,707,None,0,76,76,76,,2,1,0.6285258189891465,go,0.39999999999999997,0.707,1.7069999999999999,033,Scanner,R,2,2019_Aug_27_1237,SST,3.0.7,23.994695790485174,
stop,sst_images/Left_Arrow.bmp,sst_images/Stop_Arrow.bmp,none,1066,None,0,77,77,77,,1,0,0.5258425640058704,stop,0.35,1.066,2.2401574359941296,033,Scanner,R,2,2019_Aug_27_1237,SST,3.0.7,23.994695790485174,
go,sst_images/Right_Arrow.bmp,None,2,1270,None,0,78,78,78,,2,1,0.42004893597913906,go,0.35,1.27,2.27,033,Scanner,R,2,2019_Aug_27_1237,SST,3.0.7,23.994695790485174,
go,sst_images/Left_Arrow.bmp,None,1,708,None,0,79,79,79,,1,1,0.5460127120022662,go,0.35,0.708,1.708,033,Scanner,R,2,2019_Aug_27_1237,SST,3.0.7,23.994695790485174,
go,sst_images/Left_Arrow.bmp,None,1,724,None,0,80,80,80,,1,1,0.6286007270100527,go,0.35,0.724,1.724,033,Scanner,R,2,2019_Aug_27_1237,SST,3.0.7,23.994695790485174,
go,sst_images/Right_Arrow.bmp,None,2,739,None,0,81,81,81,,2,1,0.5444975979917217,go,0.35,0.739,1.7389999999999999,033,Scanner,R,2,2019_Aug_27_1237,SST,3.0.7,23.994695790485174,
go,sst_images/Right_Arrow.bmp,None,2,750,None,0,82,82,82,,2,1,0.3785631360078696,go,0.35,0.75,1.75,033,Scanner,R,2,2019_Aug_27_1237,SST,3.0.7,23.994695790485174,
stop,sst_images/Right_Arrow.bmp,sst_images/Stop_Arrow.bmp,none,833,None,0,83,83,83,,2,0,0.4570935579831712,stop,0.3,0.833,2.0259064420168285,033,Scanner,R,2,2019_Aug_27_1237,SST,3.0.7,23.994695790485174,
go,sst_images/Right_Arrow.bmp,None,2,1062,None,0,84,84,84,,2,1,0.548353544989368,go,0.3,1.062,2.0620000000000003,033,Scanner,R,2,2019_Aug_27_1237,SST,3.0.7,23.994695790485174,
go,sst_images/Left_Arrow.bmp,None,1,1279,None,0,85,85,85,,1,1,0.6287382820155472,go,0.3,1.279,2.279,033,Scanner,R,2,2019_Aug_27_1237,SST,3.0.7,23.994695790485174,
go,sst_images/Left_Arrow.bmp,None,1,1154,None,0,86,86,86,,1,1,0.5456090000225231,go,0.3,1.154,2.154,033,Scanner,R,2,2019_Aug_27_1237,SST,3.0.7,23.994695790485174,
go,sst_images/Right_Arrow.bmp,None,2,1101,None,0,87,87,87,,2,1,0.6291335450077895,go,0.3,1.101,2.101,033,Scanner,R,2,2019_Aug_27_1237,SST,3.0.7,23.994695790485174,
go,sst_images/Left_Arrow.bmp,None,1,993,None,0,88,88,88,,1,1,0.5468367509893142,go,0.3,0.993,1.9929999999999999,033,Scanner,R,2,2019_Aug_27_1237,SST,3.0.7,23.994695790485174,
go,sst_images/Right_Arrow.bmp,None,2,884,None,0,89,89,89,,2,1,0.5459296820044983,go,0.3,0.884,1.884,033,Scanner,R,2,2019_Aug_27_1237,SST,3.0.7,23.994695790485174,
go,sst_images/Left_Arrow.bmp,None,1,932,None,0,90,90,90,,1,1,0.628233552997699,go,0.3,0.932,1.932,033,Scanner,R,2,2019_Aug_27_1237,SST,3.0.7,23.994695790485174,
stop,sst_images/Right_Arrow.bmp,sst_images/Stop_Arrow.bmp,none,966,None,0,91,91,91,,2,0,0.4422594429925084,stop,0.25,0.966,2.1237405570074914,033,Scanner,R,2,2019_Aug_27_1237,SST,3.0.7,23.994695790485174,
go,sst_images/Right_Arrow.bmp,None,2,898,None,0,92,92,92,,2,1,0.46283040702110156,go,0.25,0.898,1.8980000000000001,033,Scanner,R,2,2019_Aug_27_1237,SST,3.0.7,23.994695790485174,
go,sst_images/Left_Arrow.bmp,None,1,922,None,0,93,93,93,,1,1,0.5042931550124194,go,0.25,0.922,1.9220000000000002,033,Scanner,R,2,2019_Aug_27_1237,SST,3.0.7,23.994695790485174,
go,sst_images/Left_Arrow.bmp,None,1,834,None,0,94,94,94,,1,1,0.5044684080057777,go,0.25,0.834,1.834,033,Scanner,R,2,2019_Aug_27_1237,SST,3.0.7,23.994695790485174,
stop,sst_images/Left_Arrow.bmp,sst_images/Stop_Arrow.bmp,none,782,None,0,95,95,95,,None,1,,stop,0.3,0.782,1.782,033,Scanner,R,2,2019_Aug_27_1237,SST,3.0.7,23.994695790485174,
go,sst_images/Left_Arrow.bmp,None,1,806,None,0,96,96,96,,1,1,0.5864456139970571,go,0.3,0.806,1.806,033,Scanner,R,2,2019_Aug_27_1237,SST,3.0.7,23.994695790485174,
go,sst_images/Right_Arrow.bmp,None,2,804,None,0,97,97,97,,2,1,0.7549479829904158,go,0.3,0.804,1.804,033,Scanner,R,2,2019_Aug_27_1237,SST,3.0.7,23.994695790485174,
go,sst_images/Left_Arrow.bmp,None,1,1001,None,0,98,98,98,,1,1,0.6647326980018988,go,0.3,1.001,2.001,033,Scanner,R,2,2019_Aug_27_1237,SST,3.0.7,23.994695790485174,
go,sst_images/Right_Arrow.bmp,None,2,990,None,0,99,99,99,,2,1,0.6276154539955314,go,0.3,0.99,1.99,033,Scanner,R,2,2019_Aug_27_1237,SST,3.0.7,23.994695790485174,
stop,sst_images/Left_Arrow.bmp,sst_images/Stop_Arrow.bmp,none,803,None,0,100,100,100,,1,0,0.535383737005759,stop,0.25,0.803,1.867616262994241,033,Scanner,R,2,2019_Aug_27_1237,SST,3.0.7,23.994695790485174,
go,sst_images/Right_Arrow.bmp,None,2,755,None,0,101,101,101,,2,1,0.4912823060003575,go,0.25,0.755,1.755,033,Scanner,R,2,2019_Aug_27_1237,SST,3.0.7,23.994695790485174,
go,sst_images/Left_Arrow.bmp,None,1,1222,None,0,102,102,102,,1,1,0.5443502639827784,go,0.25,1.222,2.222,033,Scanner,R,2,2019_Aug_27_1237,SST,3.0.7,23.994695790485174,
go,sst_images/Right_Arrow.bmp,None,2,752,None,0,103,103,103,,2,1,0.626843465026468,go,0.25,0.752,1.752,033,Scanner,R,2,2019_Aug_27_1237,SST,3.0.7,23.994695790485174,
go,sst_images/Right_Arrow.bmp,None,2,1001,None,0,104,104,104,,None,0,,go,0.25,1.001,2.001,033,Scanner,R,2,2019_Aug_27_1237,SST,3.0.7,23.994695790485174,
go,sst_images/Left_Arrow.bmp,None,1,1372,None,0,105,105,105,,1,1,0.5400865100091323,go,0.25,1.372,2.372,033,Scanner,R,2,2019_Aug_27_1237,SST,3.0.7,23.994695790485174,
go,sst_images/Left_Arrow.bmp,None,1,782,None,0,106,106,106,,1,1,0.545459415006917,go,0.25,0.782,1.782,033,Scanner,R,2,2019_Aug_27_1237,SST,3.0.7,23.994695790485174,
stop,sst_images/Right_Arrow.bmp,sst_images/Stop_Arrow.bmp,none,737,None,0,107,107,107,,2,0,0.5286117950163316,stop,0.2,0.737,1.7583882049836685,033,Scanner,R,2,2019_Aug_27_1237,SST,3.0.7,23.994695790485174,
go,sst_images/Right_Arrow.bmp,None,2,951,None,0,108,108,108,,2,1,0.5042789790022653,go,0.2,0.951,1.951,033,Scanner,R,2,2019_Aug_27_1237,SST,3.0.7,23.994695790485174,
go,sst_images/Right_Arrow.bmp,None,2,735,None,0,109,109,109,,2,1,0.5059420350007713,go,0.2,0.735,1.7349999999999999,033,Scanner,R,2,2019_Aug_27_1237,SST,3.0.7,23.994695790485174,
stop,sst_images/Left_Arrow.bmp,sst_images/Stop_Arrow.bmp,none,838,None,0,110,110,110,,None,1,,stop,0.25,0.838,1.8379999999999999,033,Scanner,R,2,2019_Aug_27_1237,SST,3.0.7,23.994695790485174,
go,sst_images/Left_Arrow.bmp,None,1,1006,None,0,111,111,111,,1,1,0.5040340950072277,go,0.25,1.006,2.0060000000000002,033,Scanner,R,2,2019_Aug_27_1237,SST,3.0.7,23.994695790485174,
go,sst_images/Right_Arrow.bmp,None,2,780,None,0,112,112,112,,2,1,0.502033467986621,go,0.25,0.78,1.78,033,Scanner,R,2,2019_Aug_27_1237,SST,3.0.7,23.994695790485174,
go,sst_images/Left_Arrow.bmp,None,1,1109,None,0,113,113,113,,1,1,0.5470114280178677,go,0.25,1.109,2.109,033,Scanner,R,2,2019_Aug_27_1237,SST,3.0.7,23.994695790485174,
stop,sst_images/Left_Arrow.bmp,sst_images/Stop_Arrow.bmp,none,1062,None,0,114,114,114,,1,0,0.5897778350044973,stop,0.2,1.062,2.022222164995503,033,Scanner,R,2,2019_Aug_27_1237,SST,3.0.7,23.994695790485174,
go,sst_images/Right_Arrow.bmp,None,2,898,None,0,115,115,115,,2,1,0.5853442490042653,go,0.2,0.898,1.8980000000000001,033,Scanner,R,2,2019_Aug_27_1237,SST,3.0.7,23.994695790485174,
go,sst_images/Left_Arrow.bmp,None,1,926,None,0,116,116,116,,None,0,,go,0.2,0.926,1.9260000000000002,033,Scanner,R,2,2019_Aug_27_1237,SST,3.0.7,23.994695790485174,
go,sst_images/Right_Arrow.bmp,None,2,702,None,0,117,117,117,,2,1,0.5454664439894259,go,0.2,0.702,1.702,033,Scanner,R,2,2019_Aug_27_1237,SST,3.0.7,23.994695790485174,
stop,sst_images/Right_Arrow.bmp,sst_images/Stop_Arrow.bmp,none,748,None,0,118,118,118,,2,0,0.4454777990176808,stop,0.15000000000000002,0.748,1.8025222009823192,033,Scanner,R,2,2019_Aug_27_1237,SST,3.0.7,23.994695790485174,
go,sst_images/Left_Arrow.bmp,None,1,823,None,0,119,119,119,,1,1,0.7132703970128205,go,0.15000000000000002,0.823,1.823,033,Scanner,R,2,2019_Aug_27_1237,SST,3.0.7,23.994695790485174,
go,sst_images/Right_Arrow.bmp,None,2,918,None,0,120,120,120,,2,1,0.6705931329925079,go,0.15000000000000002,0.918,1.9180000000000001,033,Scanner,R,2,2019_Aug_27_1237,SST,3.0.7,23.994695790485174,
go,sst_images/Left_Arrow.bmp,None,1,1074,None,0,121,121,121,,1,1,0.6250307879818138,go,0.15000000000000002,1.074,2.074,033,Scanner,R,2,2019_Aug_27_1237,SST,3.0.7,23.994695790485174,
go,sst_images/Right_Arrow.bmp,None,2,783,None,0,122,122,122,,2,1,0.6289160749875009,go,0.15000000000000002,0.783,1.783,033,Scanner,R,2,2019_Aug_27_1237,SST,3.0.7,23.994695790485174,
go,sst_images/Left_Arrow.bmp,None,1,719,None,0,123,123,123,,None,0,,go,0.15000000000000002,0.719,1.7189999999999999,033,Scanner,R,2,2019_Aug_27_1237,SST,3.0.7,23.994695790485174,
stop,sst_images/Left_Arrow.bmp,sst_images/Stop_Arrow.bmp,none,817,None,0,124,124,124,,None,1,,stop,0.2,0.817,1.817,033,Scanner,R,2,2019_Aug_27_1237,SST,3.0.7,23.994695790485174,
go,sst_images/Right_Arrow.bmp,None,2,737,None,0,125,125,125,,2,1,0.4207566339755431,go,0.2,0.737,1.737,033,Scanner,R,2,2019_Aug_27_1237,SST,3.0.7,23.994695790485174,
go,sst_images/Right_Arrow.bmp,None,2,741,None,0,126,126,126,,2,1,0.5024622890050523,go,0.2,0.741,1.741,033,Scanner,R,2,2019_Aug_27_1237,SST,3.0.7,23.994695790485174,
go,sst_images/Left_Arrow.bmp,None,1,834,None,0,127,127,127,,1,1,0.5021807549928781,go,0.2,0.834,1.834,033,Scanner,R,2,2019_Aug_27_1237,SST,3.0.7,23.994695790485174,
go,sst_images/Left_Arrow.bmp,None,1,859,None,0,128,128,128,,1,1,0.3994628310028929,go,0.2,0.859,1.859,033,Scanner,R,2,2019_Aug_27_1237,SST,3.0.7,23.994695790485174,
go,sst_images/Left_Arrow.bmp,None,1,825,None,0,129,129,129,,1,1,0.5043888780055568,go,0.2,0.825,1.825,033,Scanner,R,2,2019_Aug_27_1237,SST,3.0.7,23.994695790485174,
stop,sst_images/Right_Arrow.bmp,sst_images/Stop_Arrow.bmp,none,773,None,0,130,130,130,,None,1,,stop,0.25,0.773,1.773,033,Scanner,R,2,2019_Aug_27_1237,SST,3.0.7,23.994695790485174,
go,sst_images/Right_Arrow.bmp,None,2,751,None,0,131,131,131,,2,1,0.4598443029972259,go,0.25,0.751,1.751,033,Scanner,R,2,2019_Aug_27_1237,SST,3.0.7,23.994695790485174,
go,sst_images/Left_Arrow.bmp,None,1,965,None,0,132,132,132,,1,1,0.5038088159926701,go,0.25,0.965,1.9649999999999999,033,Scanner,R,2,2019_Aug_27_1237,SST,3.0.7,23.994695790485174,
go,sst_images/Left_Arrow.bmp,None,1,1260,None,0,133,133,133,,None,0,,go,0.25,1.26,2.26,033,Scanner,R,2,2019_Aug_27_1237,SST,3.0.7,23.994695790485174,
go,sst_images/Left_Arrow.bmp,None,1,1016,None,0,134,134,134,,1,1,0.6320844799920451,go,0.25,1.016,2.016,033,Scanner,R,2,2019_Aug_27_1237,SST,3.0.7,23.994695790485174,
go,sst_images/Right_Arrow.bmp,None,2,1049,None,0,135,135,135,,2,1,0.5009198329935316,go,0.25,1.049,2.049,033,Scanner,R,2,2019_Aug_27_1237,SST,3.0.7,23.994695790485174,
go,sst_images/Left_Arrow.bmp,None,1,732,None,0,136,136,136,,1,1,0.4636491700075567,go,0.25,0.732,1.732,033,Scanner,R,2,2019_Aug_27_1237,SST,3.0.7,23.994695790485174,
stop,sst_images/Right_Arrow.bmp,sst_images/Stop_Arrow.bmp,none,1211,None,0,137,137,137,,2,0,0.4032609519781545,stop,0.2,1.211,2.3577390480218456,033,Scanner,R,2,2019_Aug_27_1237,SST,3.0.7,23.994695790485174,
go,sst_images/Left_Arrow.bmp,None,1,864,None,0,138,138,138,,1,1,0.5006401689897757,go,0.2,0.864,1.8639999999999999,033,Scanner,R,2,2019_Aug_27_1237,SST,3.0.7,23.994695790485174,
go,sst_images/Right_Arrow.bmp,None,2,877,None,0,139,139,139,,2,1,0.5465652300044894,go,0.2,0.877,1.877,033,Scanner,R,2,2019_Aug_27_1237,SST,3.0.7,23.994695790485174,
go,sst_images/Right_Arrow.bmp,None,2,1038,None,0,140,140,140,,2,1,0.5856222139846068,go,0.2,1.038,2.0380000000000003,033,Scanner,R,2,2019_Aug_27_1237,SST,3.0.7,23.994695790485174,
go,sst_images/Left_Arrow.bmp,None,1,744,None,0,141,141,141,,1,1,0.5882064339821227,go,0.2,0.744,1.744,033,Scanner,R,2,2019_Aug_27_1237,SST,3.0.7,23.994695790485174,
stop,sst_images/Left_Arrow.bmp,sst_images/Stop_Arrow.bmp,none,741,None,0,142,142,142,,None,1,,stop,0.25,0.741,1.7409999999999999,033,Scanner,R,2,2019_Aug_27_1237,SST,3.0.7,23.994695790485174,
go,sst_images/Right_Arrow.bmp,None,2,748,None,0,143,143,143,,2,1,0.46324143500532955,go,0.25,0.748,1.748,033,Scanner,R,2,2019_Aug_27_1237,SST,3.0.7,23.994695790485174,
go,sst_images/Left_Arrow.bmp,None,1,822,None,0,144,144,144,,1,1,0.5854486089956481,go,0.25,0.822,1.822,033,Scanner,R,2,2019_Aug_27_1237,SST,3.0.7,23.994695790485174,
go,sst_images/Left_Arrow.bmp,None,1,916,None,0,145,145,145,,1,1,0.5879260009969585,go,0.25,0.916,1.916,033,Scanner,R,2,2019_Aug_27_1237,SST,3.0.7,23.994695790485174,
go,sst_images/Right_Arrow.bmp,None,2,715,None,0,146,146,146,,2,1,0.5040832019876689,go,0.25,0.715,1.7149999999999999,033,Scanner,R,2,2019_Aug_27_1237,SST,3.0.7,23.994695790485174,
stop,sst_images/Left_Arrow.bmp,sst_images/Stop_Arrow.bmp,none,1726,None,0,147,147,147,,None,1,,stop,0.3,1.726,2.726,033,Scanner,R,2,2019_Aug_27_1237,SST,3.0.7,23.994695790485174,
go,sst_images/Left_Arrow.bmp,None,1,782,None,0,148,148,148,,1,1,0.5855223439866677,go,0.3,0.782,1.782,033,Scanner,R,2,2019_Aug_27_1237,SST,3.0.7,23.994695790485174,
go,sst_images/Right_Arrow.bmp,None,2,1726,None,0,149,149,149,,2,1,0.7520889980078209,go,0.3,1.726,2.726,033,Scanner,R,2,2019_Aug_27_1237,SST,3.0.7,23.994695790485174,
go,sst_images/Left_Arrow.bmp,None,1,953,None,0,150,150,150,,1,1,0.5833513149991632,go,0.3,0.953,1.9529999999999998,033,Scanner,R,2,2019_Aug_27_1237,SST,3.0.7,23.994695790485174,
go,sst_images/Right_Arrow.bmp,None,2,844,None,0,151,151,151,,2,1,0.7528523050132208,go,0.3,0.844,1.8439999999999999,033,Scanner,R,2,2019_Aug_27_1237,SST,3.0.7,23.994695790485174,
go,sst_images/Right_Arrow.bmp,None,2,800,None,0,152,152,152,,2,1,0.8731040639977437,go,0.3,0.8,1.8,033,Scanner,R,2,2019_Aug_27_1237,SST,3.0.7,23.994695790485174,
go,sst_images/Left_Arrow.bmp,None,1,1025,None,0,153,153,153,,None,0,,go,0.3,1.025,2.025,033,Scanner,R,2,2019_Aug_27_1237,SST,3.0.7,23.994695790485174,
go,sst_images/Right_Arrow.bmp,None,2,818,None,0,154,154,154,,2,1,0.6668525350105483,go,0.3,0.818,1.818,033,Scanner,R,2,2019_Aug_27_1237,SST,3.0.7,23.994695790485174,
go,sst_images/Left_Arrow.bmp,None,1,861,None,0,155,155,155,,1,1,0.7145788150082808,go,0.3,0.861,1.861,033,Scanner,R,2,2019_Aug_27_1237,SST,3.0.7,23.994695790485174,
go,sst_images/Right_Arrow.bmp,None,2,1006,None,0,156,156,156,,2,1,0.6197185979981441,go,0.3,1.006,2.0060000000000002,033,Scanner,R,2,2019_Aug_27_1237,SST,3.0.7,23.994695790485174,
go,sst_images/Left_Arrow.bmp,None,1,939,None,0,157,157,157,,1,1,0.8795713209838141,go,0.3,0.939,1.939,033,Scanner,R,2,2019_Aug_27_1237,SST,3.0.7,23.994695790485174,
stop,sst_images/Left_Arrow.bmp,sst_images/Stop_Arrow.bmp,none,703,None,0,158,158,158,,1,0,0.5230464109918103,stop,0.25,0.703,1.7799535890081897,033,Scanner,R,2,2019_Aug_27_1237,SST,3.0.7,23.994695790485174,
go,sst_images/Right_Arrow.bmp,None,2,1064,None,0,159,159,159,,2,1,0.6695640340039972,go,0.25,1.064,2.064,033,Scanner,R,2,2019_Aug_27_1237,SST,3.0.7,23.994695790485174,
go,sst_images/Left_Arrow.bmp,None,1,1694,None,0,160,160,160,,1,1,0.8382955910055898,go,0.25,1.694,2.694,033,Scanner,R,2,2019_Aug_27_1237,SST,3.0.7,23.994695790485174,
go,sst_images/Left_Arrow.bmp,None,1,936,None,0,161,161,161,,1,1,0.6653174039965961,go,0.25,0.936,1.936,033,Scanner,R,2,2019_Aug_27_1237,SST,3.0.7,23.994695790485174,
go,sst_images/Right_Arrow.bmp,None,2,725,None,0,162,162,162,,2,1,0.6704476269951556,go,0.25,0.725,1.725,033,Scanner,R,2,2019_Aug_27_1237,SST,3.0.7,23.994695790485174,
go,sst_images/Left_Arrow.bmp,None,1,777,None,0,163,163,163,,None,0,,go,0.25,0.777,1.7770000000000001,033,Scanner,R,2,2019_Aug_27_1237,SST,3.0.7,23.994695790485174,
go,sst_images/Right_Arrow.bmp,None,2,1070,None,0,164,164,164,,2,1,0.4618046219984535,go,0.25,1.07,2.0700000000000003,033,Scanner,R,2,2019_Aug_27_1237,SST,3.0.7,23.994695790485174,
go,sst_images/Right_Arrow.bmp,None,2,1006,None,0,165,165,165,,2,1,0.4616351779841352,go,0.25,1.006,2.0060000000000002,033,Scanner,R,2,2019_Aug_27_1237,SST,3.0.7,23.994695790485174,
go,sst_images/Right_Arrow.bmp,None,2,799,None,0,166,166,166,,2,1,0.4192762129823677,go,0.25,0.799,1.799,033,Scanner,R,2,2019_Aug_27_1237,SST,3.0.7,23.994695790485174,
go,sst_images/Left_Arrow.bmp,None,1,769,None,0,167,167,167,,2,0,0.42117058602161705,go,0.25,0.769,1.7690000000000001,033,Scanner,R,2,2019_Aug_27_1237,SST,3.0.7,23.994695790485174,
go,sst_images/Right_Arrow.bmp,None,2,709,None,0,168,168,168,,2,1,0.460612081020372,go,0.25,0.709,1.709,033,Scanner,R,2,2019_Aug_27_1237,SST,3.0.7,23.994695790485174,
stop,sst_images/Right_Arrow.bmp,sst_images/Stop_Arrow.bmp,none,834,None,0,169,169,169,,2,0,0.5283871160063427,stop,0.2,0.834,1.8556128839936574,033,Scanner,R,2,2019_Aug_27_1237,SST,3.0.7,23.994695790485174,
go,sst_images/Right_Arrow.bmp,None,2,742,None,0,170,170,170,,2,1,0.5451413739938289,go,0.2,0.742,1.742,033,Scanner,R,2,2019_Aug_27_1237,SST,3.0.7,23.994695790485174,
go,sst_images/Left_Arrow.bmp,None,1,1211,None,0,171,171,171,,1,1,0.5060619279975072,go,0.2,1.211,2.2110000000000003,033,Scanner,R,2,2019_Aug_27_1237,SST,3.0.7,23.994695790485174,
go,sst_images/Right_Arrow.bmp,None,2,885,None,0,172,172,172,,2,1,0.7117794079822488,go,0.2,0.885,1.885,033,Scanner,R,2,2019_Aug_27_1237,SST,3.0.7,23.994695790485174,
go,sst_images/Right_Arrow.bmp,None,2,1120,None,0,173,173,173,,2,1,0.5116188209794927,go,0.2,1.12,2.12,033,Scanner,R,2,2019_Aug_27_1237,SST,3.0.7,23.994695790485174,
go,sst_images/Right_Arrow.bmp,None,2,1103,None,0,174,174,174,,2,1,0.7124422529886942,go,0.2,1.103,2.1029999999999998,033,Scanner,R,2,2019_Aug_27_1237,SST,3.0.7,23.994695790485174,
go,sst_images/Left_Arrow.bmp,None,1,717,None,0,175,175,175,,1,1,0.5876962250040378,go,0.2,0.717,1.717,033,Scanner,R,2,2019_Aug_27_1237,SST,3.0.7,23.994695790485174,
go,sst_images/Right_Arrow.bmp,None,2,897,None,0,176,176,176,,2,1,0.7538611740164924,go,0.2,0.897,1.897,033,Scanner,R,2,2019_Aug_27_1237,SST,3.0.7,23.994695790485174,
stop,sst_images/Left_Arrow.bmp,sst_images/Stop_Arrow.bmp,none,744,None,0,177,177,177,,1,0,0.5455164260056335,stop,0.15000000000000002,0.744,1.6984835739943664,033,Scanner,R,2,2019_Aug_27_1237,SST,3.0.7,23.994695790485174,
go,sst_images/Left_Arrow.bmp,None,1,805,None,0,178,178,178,,1,1,0.6260036030143965,go,0.15000000000000002,0.805,1.8050000000000002,033,Scanner,R,2,2019_Aug_27_1237,SST,3.0.7,23.994695790485174,
go,sst_images/Right_Arrow.bmp,None,2,793,5096.0,0,179,179,179,,2,1,0.8396722130128182,go,0.15000000000000002,0.793,1.7930000000000001,033,Scanner,R,2,2019_Aug_27_1237,SST,3.0.7,23.994695790485174,
