trial_type,arrow_1,arrow_2,corrAns,jitter,run_end_fixation,trials.thisRepN,trials.thisTrialN,trials.thisN,trials.thisIndex,randomized TrialOrder,key_response.keys,key_response.corr,key_response.rt,trial_t.routineEndVal,ss_delay,iti_duration,SOA,participant,prac_or_scan,handedness,run,date,expName,psychopyVersion,frameRate,
go,sst_images/Left_Arrow.bmp,None,1,732,None,0,0,0,0,1,1,1,0.6132131259946618,go,0.05,0.732,1.732,034,Scanner,R,1,2019_Aug_27_0937,SST,3.0.7,24.04956694702043,
go,sst_images/Right_Arrow.bmp,None,2,709,None,0,1,1,1,,2,1,0.4209802280238364,go,0.05,0.709,1.709,034,Scanner,R,1,2019_Aug_27_0937,SST,3.0.7,24.04956694702043,
stop,sst_images/Right_Arrow.bmp,sst_images/Stop_Arrow.bmp,none,832,None,0,2,2,2,,None,1,,stop,0.1,0.832,1.8319999999999999,034,Scanner,R,1,2019_Aug_27_0937,SST,3.0.7,24.04956694702043,
go,sst_images/Right_Arrow.bmp,None,2,812,None,0,3,3,3,,2,1,0.5014738659956492,go,0.1,0.812,1.812,034,Scanner,R,1,2019_Aug_27_0937,SST,3.0.7,24.04956694702043,
go,sst_images/Left_Arrow.bmp,None,1,916,None,0,4,4,4,,1,1,0.46054031298263,go,0.1,0.916,1.916,034,Scanner,R,1,2019_Aug_27_0937,SST,3.0.7,24.04956694702043,
stop,sst_images/Left_Arrow.bmp,sst_images/Stop_Arrow.bmp,none,817,None,0,5,5,5,,None,1,,stop,0.15000000000000002,0.817,1.817,034,Scanner,R,1,2019_Aug_27_0937,SST,3.0.7,24.04956694702043,
go,sst_images/Left_Arrow.bmp,None,1,1153,None,0,6,6,6,,1,1,0.5031895549909677,go,0.15000000000000002,1.153,2.153,034,Scanner,R,1,2019_Aug_27_0937,SST,3.0.7,24.04956694702043,
go,sst_images/Right_Arrow.bmp,None,2,1097,None,0,7,7,7,,2,1,0.4611481229949277,go,0.15000000000000002,1.097,2.097,034,Scanner,R,1,2019_Aug_27_0937,SST,3.0.7,24.04956694702043,
go,sst_images/Left_Arrow.bmp,None,1,771,None,0,8,8,8,,1,1,0.46258112299256027,go,0.15000000000000002,0.771,1.771,034,Scanner,R,1,2019_Aug_27_0937,SST,3.0.7,24.04956694702043,
go,sst_images/Right_Arrow.bmp,None,2,768,None,0,9,9,9,,2,1,0.46379417699063197,go,0.15000000000000002,0.768,1.768,034,Scanner,R,1,2019_Aug_27_0937,SST,3.0.7,24.04956694702043,
stop,sst_images/Left_Arrow.bmp,sst_images/Stop_Arrow.bmp,none,709,None,0,10,10,10,,1,0,0.4293306319741532,stop,0.10000000000000002,0.709,1.7296693680258468,034,Scanner,R,1,2019_Aug_27_0937,SST,3.0.7,24.04956694702043,
go,sst_images/Right_Arrow.bmp,None,2,861,None,0,11,11,11,,2,1,0.46247027601930313,go,0.10000000000000002,0.861,1.861,034,Scanner,R,1,2019_Aug_27_0937,SST,3.0.7,24.04956694702043,
go,sst_images/Left_Arrow.bmp,None,1,834,None,0,12,12,12,,1,1,0.46048846398480237,go,0.10000000000000002,0.834,1.834,034,Scanner,R,1,2019_Aug_27_0937,SST,3.0.7,24.04956694702043,
go,sst_images/Right_Arrow.bmp,None,2,830,None,0,13,13,13,,2,1,0.4223953220061958,go,0.10000000000000002,0.83,1.83,034,Scanner,R,1,2019_Aug_27_0937,SST,3.0.7,24.04956694702043,
go,sst_images/Left_Arrow.bmp,None,1,1202,None,0,14,14,14,,1,1,0.506247273995541,go,0.10000000000000002,1.202,2.202,034,Scanner,R,1,2019_Aug_27_0937,SST,3.0.7,24.04956694702043,
stop,sst_images/Right_Arrow.bmp,sst_images/Stop_Arrow.bmp,none,929,None,0,15,15,15,,None,1,,stop,0.15000000000000002,0.929,1.929,034,Scanner,R,1,2019_Aug_27_0937,SST,3.0.7,24.04956694702043,
go,sst_images/Left_Arrow.bmp,None,1,705,None,0,16,16,16,,1,1,0.504766309983097,go,0.15000000000000002,0.705,1.705,034,Scanner,R,1,2019_Aug_27_0937,SST,3.0.7,24.04956694702043,
go,sst_images/Left_Arrow.bmp,None,1,953,None,0,17,17,17,,1,1,0.5035535059869289,go,0.15000000000000002,0.953,1.9529999999999998,034,Scanner,R,1,2019_Aug_27_0937,SST,3.0.7,24.04956694702043,
go,sst_images/Right_Arrow.bmp,None,2,795,None,0,18,18,18,,2,1,0.420758279011352,go,0.15000000000000002,0.795,1.795,034,Scanner,R,1,2019_Aug_27_0937,SST,3.0.7,24.04956694702043,
go,sst_images/Left_Arrow.bmp,None,1,910,None,0,19,19,19,,1,1,0.46173942400491796,go,0.15000000000000002,0.91,1.9100000000000001,034,Scanner,R,1,2019_Aug_27_0937,SST,3.0.7,24.04956694702043,
go,sst_images/Left_Arrow.bmp,None,1,975,None,0,20,20,20,,1,1,0.5866206659993622,go,0.15000000000000002,0.975,1.975,034,Scanner,R,1,2019_Aug_27_0937,SST,3.0.7,24.04956694702043,
stop,sst_images/Right_Arrow.bmp,sst_images/Stop_Arrow.bmp,none,708,None,0,21,21,21,,None,1,,stop,0.2,0.708,1.708,034,Scanner,R,1,2019_Aug_27_0937,SST,3.0.7,24.04956694702043,
go,sst_images/Right_Arrow.bmp,None,2,838,None,0,22,22,22,,2,1,0.46092914100154303,go,0.2,0.838,1.838,034,Scanner,R,1,2019_Aug_27_0937,SST,3.0.7,24.04956694702043,
go,sst_images/Left_Arrow.bmp,None,1,794,None,0,23,23,23,,1,1,0.5440073549980298,go,0.2,0.794,1.794,034,Scanner,R,1,2019_Aug_27_0937,SST,3.0.7,24.04956694702043,
go,sst_images/Right_Arrow.bmp,None,2,835,None,0,24,24,24,,2,1,0.5850439720088616,go,0.2,0.835,1.835,034,Scanner,R,1,2019_Aug_27_0937,SST,3.0.7,24.04956694702043,
go,sst_images/Left_Arrow.bmp,None,1,726,None,0,25,25,25,,1,1,0.45982446701964363,go,0.2,0.726,1.726,034,Scanner,R,1,2019_Aug_27_0937,SST,3.0.7,24.04956694702043,
go,sst_images/Right_Arrow.bmp,None,2,1514,None,0,26,26,26,,2,1,0.4197049060021527,go,0.2,1.514,2.5140000000000002,034,Scanner,R,1,2019_Aug_27_0937,SST,3.0.7,24.04956694702043,
go,sst_images/Right_Arrow.bmp,None,2,1028,None,0,27,27,27,,2,1,0.5465725940011907,go,0.2,1.028,2.028,034,Scanner,R,1,2019_Aug_27_0937,SST,3.0.7,24.04956694702043,
go,sst_images/Left_Arrow.bmp,None,1,849,None,0,28,28,28,,1,1,0.41822731102001853,go,0.2,0.849,1.849,034,Scanner,R,1,2019_Aug_27_0937,SST,3.0.7,24.04956694702043,
go,sst_images/Right_Arrow.bmp,None,2,807,None,0,29,29,29,,2,1,0.5056444740039296,go,0.2,0.807,1.807,034,Scanner,R,1,2019_Aug_27_0937,SST,3.0.7,24.04956694702043,
stop,sst_images/Left_Arrow.bmp,sst_images/Stop_Arrow.bmp,none,870,None,0,30,30,30,,1,0,0.4913642310129944,stop,0.15000000000000002,0.87,1.8786357689870057,034,Scanner,R,1,2019_Aug_27_0937,SST,3.0.7,24.04956694702043,
go,sst_images/Right_Arrow.bmp,None,2,826,None,0,31,31,31,,2,1,0.5046795700036455,go,0.15000000000000002,0.826,1.826,034,Scanner,R,1,2019_Aug_27_0937,SST,3.0.7,24.04956694702043,
go,sst_images/Left_Arrow.bmp,None,1,737,None,0,32,32,32,,1,1,0.46445841097738594,go,0.15000000000000002,0.737,1.737,034,Scanner,R,1,2019_Aug_27_0937,SST,3.0.7,24.04956694702043,
go,sst_images/Right_Arrow.bmp,None,2,853,None,0,33,33,33,,2,1,0.41083910499583,go,0.15000000000000002,0.853,1.853,034,Scanner,R,1,2019_Aug_27_0937,SST,3.0.7,24.04956694702043,
go,sst_images/Left_Arrow.bmp,None,1,740,None,0,34,34,34,,1,1,0.42219522601226345,go,0.15000000000000002,0.74,1.74,034,Scanner,R,1,2019_Aug_27_0937,SST,3.0.7,24.04956694702043,
go,sst_images/Left_Arrow.bmp,None,1,835,None,0,35,35,35,,1,1,0.5040216780034825,go,0.15000000000000002,0.835,1.835,034,Scanner,R,1,2019_Aug_27_0937,SST,3.0.7,24.04956694702043,
go,sst_images/Right_Arrow.bmp,None,2,848,None,0,36,36,36,,2,1,0.4645285129954573,go,0.15000000000000002,0.848,1.8479999999999999,034,Scanner,R,1,2019_Aug_27_0937,SST,3.0.7,24.04956694702043,
go,sst_images/Right_Arrow.bmp,None,2,983,None,0,37,37,37,,2,1,0.5039266550156754,go,0.15000000000000002,0.983,1.983,034,Scanner,R,1,2019_Aug_27_0937,SST,3.0.7,24.04956694702043,
go,sst_images/Left_Arrow.bmp,None,1,725,None,0,38,38,38,,1,1,0.5045066630118527,go,0.15000000000000002,0.725,1.725,034,Scanner,R,1,2019_Aug_27_0937,SST,3.0.7,24.04956694702043,
go,sst_images/Left_Arrow.bmp,None,1,717,None,0,39,39,39,,1,1,0.5464366210217122,go,0.15000000000000002,0.717,1.717,034,Scanner,R,1,2019_Aug_27_0937,SST,3.0.7,24.04956694702043,
go,sst_images/Right_Arrow.bmp,None,2,701,None,0,40,40,40,,2,1,0.46368116498342715,go,0.15000000000000002,0.701,1.701,034,Scanner,R,1,2019_Aug_27_0937,SST,3.0.7,24.04956694702043,
stop,sst_images/Right_Arrow.bmp,sst_images/Stop_Arrow.bmp,none,1646,None,0,41,41,41,,2,0,0.41876036499161273,stop,0.10000000000000002,1.646,2.677239635008387,034,Scanner,R,1,2019_Aug_27_0937,SST,3.0.7,24.04956694702043,
go,sst_images/Left_Arrow.bmp,None,1,736,None,0,42,42,42,,1,1,0.45786684000631794,go,0.10000000000000002,0.736,1.736,034,Scanner,R,1,2019_Aug_27_0937,SST,3.0.7,24.04956694702043,
go,sst_images/Left_Arrow.bmp,None,1,855,None,0,43,43,43,,1,1,0.5026177209801972,go,0.10000000000000002,0.855,1.855,034,Scanner,R,1,2019_Aug_27_0937,SST,3.0.7,24.04956694702043,
go,sst_images/Right_Arrow.bmp,None,2,903,None,0,44,44,44,,2,1,0.45893686200724915,go,0.10000000000000002,0.903,1.903,034,Scanner,R,1,2019_Aug_27_0937,SST,3.0.7,24.04956694702043,
go,sst_images/Right_Arrow.bmp,None,2,802,None,0,45,45,45,,2,1,0.4211673219979275,go,0.10000000000000002,0.802,1.802,034,Scanner,R,1,2019_Aug_27_0937,SST,3.0.7,24.04956694702043,
stop,sst_images/Right_Arrow.bmp,sst_images/Stop_Arrow.bmp,none,768,None,0,46,46,46,,None,1,,stop,0.15000000000000002,0.768,1.768,034,Scanner,R,1,2019_Aug_27_0937,SST,3.0.7,24.04956694702043,
go,sst_images/Right_Arrow.bmp,None,2,779,None,0,47,47,47,,None,0,,go,0.15000000000000002,0.779,1.779,034,Scanner,R,1,2019_Aug_27_0937,SST,3.0.7,24.04956694702043,
go,sst_images/Left_Arrow.bmp,None,1,703,None,0,48,48,48,,1,1,0.4578528569836635,go,0.15000000000000002,0.703,1.7029999999999998,034,Scanner,R,1,2019_Aug_27_0937,SST,3.0.7,24.04956694702043,
go,sst_images/Left_Arrow.bmp,None,1,941,None,0,49,49,49,,1,1,0.47886071298853494,go,0.15000000000000002,0.941,1.9409999999999998,034,Scanner,R,1,2019_Aug_27_0937,SST,3.0.7,24.04956694702043,
go,sst_images/Left_Arrow.bmp,None,1,779,None,0,50,50,50,,1,1,0.5876444290042855,go,0.15000000000000002,0.779,1.779,034,Scanner,R,1,2019_Aug_27_0937,SST,3.0.7,24.04956694702043,
stop,sst_images/Left_Arrow.bmp,sst_images/Stop_Arrow.bmp,none,902,None,0,51,51,51,,1,0,0.41110648299218155,stop,0.10000000000000002,0.902,1.9408935170078185,034,Scanner,R,1,2019_Aug_27_0937,SST,3.0.7,24.04956694702043,
go,sst_images/Right_Arrow.bmp,None,2,948,None,0,52,52,52,,2,1,0.5030961979937274,go,0.10000000000000002,0.948,1.948,034,Scanner,R,1,2019_Aug_27_0937,SST,3.0.7,24.04956694702043,
go,sst_images/Right_Arrow.bmp,None,2,706,None,0,53,53,53,,2,1,0.5044231830106582,go,0.10000000000000002,0.706,1.706,034,Scanner,R,1,2019_Aug_27_0937,SST,3.0.7,24.04956694702043,
stop,sst_images/Right_Arrow.bmp,sst_images/Stop_Arrow.bmp,none,730,None,0,54,54,54,,None,1,,stop,0.15000000000000002,0.73,1.7300000000000002,034,Scanner,R,1,2019_Aug_27_0937,SST,3.0.7,24.04956694702043,
go,sst_images/Left_Arrow.bmp,None,1,883,None,0,55,55,55,,1,1,0.5013525529939216,go,0.15000000000000002,0.883,1.883,034,Scanner,R,1,2019_Aug_27_0937,SST,3.0.7,24.04956694702043,
go,sst_images/Left_Arrow.bmp,None,1,951,None,0,56,56,56,,1,1,0.5028942920034751,go,0.15000000000000002,0.951,1.951,034,Scanner,R,1,2019_Aug_27_0937,SST,3.0.7,24.04956694702043,
go,sst_images/Left_Arrow.bmp,None,1,749,None,0,57,57,57,,1,1,0.4572520480141975,go,0.15000000000000002,0.749,1.749,034,Scanner,R,1,2019_Aug_27_0937,SST,3.0.7,24.04956694702043,
go,sst_images/Right_Arrow.bmp,None,2,722,None,0,58,58,58,,2,1,0.5041541190003045,go,0.15000000000000002,0.722,1.722,034,Scanner,R,1,2019_Aug_27_0937,SST,3.0.7,24.04956694702043,
stop,sst_images/Left_Arrow.bmp,sst_images/Stop_Arrow.bmp,none,706,None,0,59,59,59,,None,1,,stop,0.2,0.706,1.7059999999999997,034,Scanner,R,1,2019_Aug_27_0937,SST,3.0.7,24.04956694702043,
go,sst_images/Left_Arrow.bmp,None,1,711,None,0,60,60,60,,1,1,0.5044735730043612,go,0.2,0.711,1.7109999999999999,034,Scanner,R,1,2019_Aug_27_0937,SST,3.0.7,24.04956694702043,
go,sst_images/Left_Arrow.bmp,None,1,1227,None,0,61,61,61,,1,1,0.5455612039950211,go,0.2,1.227,2.2270000000000003,034,Scanner,R,1,2019_Aug_27_0937,SST,3.0.7,24.04956694702043,
go,sst_images/Right_Arrow.bmp,None,2,907,None,0,62,62,62,,2,1,0.4631201039883308,go,0.2,0.907,1.907,034,Scanner,R,1,2019_Aug_27_0937,SST,3.0.7,24.04956694702043,
go,sst_images/Right_Arrow.bmp,None,2,747,None,0,63,63,63,,2,1,0.46005864001926966,go,0.2,0.747,1.7469999999999999,034,Scanner,R,1,2019_Aug_27_0937,SST,3.0.7,24.04956694702043,
stop,sst_images/Right_Arrow.bmp,sst_images/Stop_Arrow.bmp,none,1533,None,0,64,64,64,,2,0,0.485880027001258,stop,0.15000000000000002,1.533,2.547119972998742,034,Scanner,R,1,2019_Aug_27_0937,SST,3.0.7,24.04956694702043,
go,sst_images/Left_Arrow.bmp,None,1,1026,None,0,65,65,65,,1,1,0.50427004499943,go,0.15000000000000002,1.026,2.026,034,Scanner,R,1,2019_Aug_27_0937,SST,3.0.7,24.04956694702043,
go,sst_images/Right_Arrow.bmp,None,2,1533,None,0,66,66,66,,2,1,0.4176045260101091,go,0.15000000000000002,1.533,2.533,034,Scanner,R,1,2019_Aug_27_0937,SST,3.0.7,24.04956694702043,
go,sst_images/Left_Arrow.bmp,None,1,844,None,0,67,67,67,,1,1,0.4623595630109776,go,0.15000000000000002,0.844,1.8439999999999999,034,Scanner,R,1,2019_Aug_27_0937,SST,3.0.7,24.04956694702043,
go,sst_images/Right_Arrow.bmp,None,2,904,None,0,68,68,68,,2,1,0.4608140680065844,go,0.15000000000000002,0.904,1.904,034,Scanner,R,1,2019_Aug_27_0937,SST,3.0.7,24.04956694702043,
go,sst_images/Right_Arrow.bmp,None,2,823,None,0,69,69,69,,2,1,0.5009601229976397,go,0.15000000000000002,0.823,1.823,034,Scanner,R,1,2019_Aug_27_0937,SST,3.0.7,24.04956694702043,
go,sst_images/Left_Arrow.bmp,None,1,754,None,0,70,70,70,,1,1,0.5782467050012201,go,0.15000000000000002,0.754,1.754,034,Scanner,R,1,2019_Aug_27_0937,SST,3.0.7,24.04956694702043,
stop,sst_images/Right_Arrow.bmp,sst_images/Stop_Arrow.bmp,none,1116,None,0,71,71,71,,None,1,,stop,0.2,1.116,2.1159999999999997,034,Scanner,R,1,2019_Aug_27_0937,SST,3.0.7,24.04956694702043,
go,sst_images/Right_Arrow.bmp,None,2,864,None,0,72,72,72,,2,1,0.6271007019968238,go,0.2,0.864,1.8639999999999999,034,Scanner,R,1,2019_Aug_27_0937,SST,3.0.7,24.04956694702043,
go,sst_images/Left_Arrow.bmp,None,1,1093,None,0,73,73,73,,1,1,0.5021758459915873,go,0.2,1.093,2.093,034,Scanner,R,1,2019_Aug_27_0937,SST,3.0.7,24.04956694702043,
go,sst_images/Right_Arrow.bmp,None,2,1344,None,0,74,74,74,,2,1,0.4202988149772864,go,0.2,1.344,2.3440000000000003,034,Scanner,R,1,2019_Aug_27_0937,SST,3.0.7,24.04956694702043,
go,sst_images/Left_Arrow.bmp,None,1,957,None,0,75,75,75,,1,1,0.5039924820011947,go,0.2,0.957,1.9569999999999999,034,Scanner,R,1,2019_Aug_27_0937,SST,3.0.7,24.04956694702043,
go,sst_images/Right_Arrow.bmp,None,2,968,None,0,76,76,76,,2,1,0.5451447999803349,go,0.2,0.968,1.968,034,Scanner,R,1,2019_Aug_27_0937,SST,3.0.7,24.04956694702043,
go,sst_images/Right_Arrow.bmp,None,2,781,None,0,77,77,77,,2,1,0.5042850550089497,go,0.2,0.781,1.7810000000000001,034,Scanner,R,1,2019_Aug_27_0937,SST,3.0.7,24.04956694702043,
go,sst_images/Left_Arrow.bmp,None,1,714,None,0,78,78,78,,1,1,0.5042193029948976,go,0.2,0.714,1.714,034,Scanner,R,1,2019_Aug_27_0937,SST,3.0.7,24.04956694702043,
go,sst_images/Left_Arrow.bmp,None,1,779,None,0,79,79,79,,1,1,0.5033616590080783,go,0.2,0.779,1.779,034,Scanner,R,1,2019_Aug_27_0937,SST,3.0.7,24.04956694702043,
go,sst_images/Right_Arrow.bmp,None,2,961,None,0,80,80,80,,2,1,0.46236724400660023,go,0.2,0.961,1.9609999999999999,034,Scanner,R,1,2019_Aug_27_0937,SST,3.0.7,24.04956694702043,
go,sst_images/Right_Arrow.bmp,None,2,799,None,0,81,81,81,,2,1,0.46082524801022373,go,0.2,0.799,1.799,034,Scanner,R,1,2019_Aug_27_0937,SST,3.0.7,24.04956694702043,
go,sst_images/Right_Arrow.bmp,None,2,1308,None,0,82,82,82,,2,1,0.46431016601854935,go,0.2,1.308,2.308,034,Scanner,R,1,2019_Aug_27_0937,SST,3.0.7,24.04956694702043,
stop,sst_images/Left_Arrow.bmp,sst_images/Stop_Arrow.bmp,none,796,None,0,83,83,83,,1,0,0.4524133630038705,stop,0.15000000000000002,0.796,1.8435866369961296,034,Scanner,R,1,2019_Aug_27_0937,SST,3.0.7,24.04956694702043,
go,sst_images/Left_Arrow.bmp,None,1,718,None,0,84,84,84,,1,1,0.5858757490059361,go,0.15000000000000002,0.718,1.718,034,Scanner,R,1,2019_Aug_27_0937,SST,3.0.7,24.04956694702043,
go,sst_images/Left_Arrow.bmp,None,1,1258,None,0,85,85,85,,1,1,0.5443906399887055,go,0.15000000000000002,1.258,2.258,034,Scanner,R,1,2019_Aug_27_0937,SST,3.0.7,24.04956694702043,
go,sst_images/Right_Arrow.bmp,None,2,1026,None,0,86,86,86,,2,1,0.49789411801612005,go,0.15000000000000002,1.026,2.026,034,Scanner,R,1,2019_Aug_27_0937,SST,3.0.7,24.04956694702043,
go,sst_images/Left_Arrow.bmp,None,1,1531,None,0,87,87,87,,1,1,0.504123342980165,go,0.15000000000000002,1.531,2.5309999999999997,034,Scanner,R,1,2019_Aug_27_0937,SST,3.0.7,24.04956694702043,
go,sst_images/Right_Arrow.bmp,None,2,874,None,0,88,88,88,,2,1,0.5037877160066273,go,0.15000000000000002,0.874,1.874,034,Scanner,R,1,2019_Aug_27_0937,SST,3.0.7,24.04956694702043,
go,sst_images/Left_Arrow.bmp,None,1,923,None,0,89,89,89,,1,1,0.4612892669974826,go,0.15000000000000002,0.923,1.923,034,Scanner,R,1,2019_Aug_27_0937,SST,3.0.7,24.04956694702043,
go,sst_images/Right_Arrow.bmp,None,2,1602,None,0,90,90,90,,2,1,0.4187266459921375,go,0.15000000000000002,1.602,2.6020000000000003,034,Scanner,R,1,2019_Aug_27_0937,SST,3.0.7,24.04956694702043,
go,sst_images/Left_Arrow.bmp,None,1,827,None,0,91,91,91,,1,1,0.4658869699924253,go,0.15000000000000002,0.827,1.827,034,Scanner,R,1,2019_Aug_27_0937,SST,3.0.7,24.04956694702043,
stop,sst_images/Right_Arrow.bmp,sst_images/Stop_Arrow.bmp,none,732,None,0,92,92,92,,None,1,,stop,0.2,0.732,1.732,034,Scanner,R,1,2019_Aug_27_0937,SST,3.0.7,24.04956694702043,
go,sst_images/Left_Arrow.bmp,None,1,728,None,0,93,93,93,,1,1,0.5026532699994277,go,0.2,0.728,1.728,034,Scanner,R,1,2019_Aug_27_0937,SST,3.0.7,24.04956694702043,
go,sst_images/Left_Arrow.bmp,None,1,730,None,0,94,94,94,,1,1,0.5440975319943391,go,0.2,0.73,1.73,034,Scanner,R,1,2019_Aug_27_0937,SST,3.0.7,24.04956694702043,
go,sst_images/Right_Arrow.bmp,None,2,802,None,0,95,95,95,,2,1,0.5452533210045658,go,0.2,0.802,1.802,034,Scanner,R,1,2019_Aug_27_0937,SST,3.0.7,24.04956694702043,
go,sst_images/Left_Arrow.bmp,None,1,721,None,0,96,96,96,,1,1,0.5456125380005687,go,0.2,0.721,1.721,034,Scanner,R,1,2019_Aug_27_0937,SST,3.0.7,24.04956694702043,
stop,sst_images/Right_Arrow.bmp,sst_images/Stop_Arrow.bmp,none,730,None,0,97,97,97,,2,0,0.45262897000066005,stop,0.15000000000000002,0.73,1.77737102999934,034,Scanner,R,1,2019_Aug_27_0937,SST,3.0.7,24.04956694702043,
go,sst_images/Right_Arrow.bmp,None,2,1026,None,0,98,98,98,,2,1,0.8313088610011619,go,0.15000000000000002,1.026,2.026,034,Scanner,R,1,2019_Aug_27_0937,SST,3.0.7,24.04956694702043,
go,sst_images/Right_Arrow.bmp,None,2,790,None,0,99,99,99,,2,1,0.5841332869895268,go,0.15000000000000002,0.79,1.79,034,Scanner,R,1,2019_Aug_27_0937,SST,3.0.7,24.04956694702043,
go,sst_images/Left_Arrow.bmp,None,1,1246,None,0,100,100,100,,1,1,0.6300766319909599,go,0.15000000000000002,1.246,2.246,034,Scanner,R,1,2019_Aug_27_0937,SST,3.0.7,24.04956694702043,
stop,sst_images/Left_Arrow.bmp,sst_images/Stop_Arrow.bmp,none,1183,None,0,101,101,101,,None,1,,stop,0.2,1.183,2.183,034,Scanner,R,1,2019_Aug_27_0937,SST,3.0.7,24.04956694702043,
go,sst_images/Right_Arrow.bmp,None,2,709,None,0,102,102,102,,2,1,0.5893208119960036,go,0.2,0.709,1.709,034,Scanner,R,1,2019_Aug_27_0937,SST,3.0.7,24.04956694702043,
go,sst_images/Right_Arrow.bmp,None,2,731,None,0,103,103,103,,2,1,0.6265081710007507,go,0.2,0.731,1.7309999999999999,034,Scanner,R,1,2019_Aug_27_0937,SST,3.0.7,24.04956694702043,
go,sst_images/Left_Arrow.bmp,None,1,726,None,0,104,104,104,,1,1,0.6707611129968427,go,0.2,0.726,1.726,034,Scanner,R,1,2019_Aug_27_0937,SST,3.0.7,24.04956694702043,
go,sst_images/Left_Arrow.bmp,None,1,842,None,0,105,105,105,,1,1,0.6292192310211249,go,0.2,0.842,1.842,034,Scanner,R,1,2019_Aug_27_0937,SST,3.0.7,24.04956694702043,
go,sst_images/Right_Arrow.bmp,None,2,706,None,0,106,106,106,,2,1,0.6709916010149755,go,0.2,0.706,1.706,034,Scanner,R,1,2019_Aug_27_0937,SST,3.0.7,24.04956694702043,
go,sst_images/Right_Arrow.bmp,None,2,718,None,0,107,107,107,,2,1,0.5452835359901655,go,0.2,0.718,1.718,034,Scanner,R,1,2019_Aug_27_0937,SST,3.0.7,24.04956694702043,
stop,sst_images/Left_Arrow.bmp,sst_images/Stop_Arrow.bmp,none,816,None,0,108,108,108,,None,1,,stop,0.25,0.816,1.8159999999999998,034,Scanner,R,1,2019_Aug_27_0937,SST,3.0.7,24.04956694702043,
go,sst_images/Left_Arrow.bmp,None,1,834,None,0,109,109,109,,1,1,0.5877914220036473,go,0.25,0.834,1.834,034,Scanner,R,1,2019_Aug_27_0937,SST,3.0.7,24.04956694702043,
go,sst_images/Right_Arrow.bmp,None,2,898,None,0,110,110,110,,2,1,0.5339554469974246,go,0.25,0.898,1.8980000000000001,034,Scanner,R,1,2019_Aug_27_0937,SST,3.0.7,24.04956694702043,
go,sst_images/Left_Arrow.bmp,None,1,1726,None,0,111,111,111,,1,1,0.5468812109902501,go,0.25,1.726,2.726,034,Scanner,R,1,2019_Aug_27_0937,SST,3.0.7,24.04956694702043,
go,sst_images/Right_Arrow.bmp,None,2,929,None,0,112,112,112,,2,1,0.501386513991747,go,0.25,0.929,1.929,034,Scanner,R,1,2019_Aug_27_0937,SST,3.0.7,24.04956694702043,
go,sst_images/Left_Arrow.bmp,None,1,1298,None,0,113,113,113,,1,1,0.5495561450079549,go,0.25,1.298,2.298,034,Scanner,R,1,2019_Aug_27_0937,SST,3.0.7,24.04956694702043,
go,sst_images/Right_Arrow.bmp,None,2,1043,None,0,114,114,114,,2,1,0.46182866001618095,go,0.25,1.043,2.043,034,Scanner,R,1,2019_Aug_27_0937,SST,3.0.7,24.04956694702043,
go,sst_images/Left_Arrow.bmp,None,1,790,None,0,115,115,115,,1,1,0.4612881029897835,go,0.25,0.79,1.79,034,Scanner,R,1,2019_Aug_27_0937,SST,3.0.7,24.04956694702043,
go,sst_images/Right_Arrow.bmp,None,2,724,None,0,116,116,116,,2,1,0.45994147498277016,go,0.25,0.724,1.724,034,Scanner,R,1,2019_Aug_27_0937,SST,3.0.7,24.04956694702043,
stop,sst_images/Right_Arrow.bmp,sst_images/Stop_Arrow.bmp,none,953,None,0,117,117,117,,2,0,0.4962718250171747,stop,0.2,0.953,2.006728174982825,034,Scanner,R,1,2019_Aug_27_0937,SST,3.0.7,24.04956694702043,
go,sst_images/Left_Arrow.bmp,None,1,708,None,0,118,118,118,,1,1,0.5112650980008766,go,0.2,0.708,1.708,034,Scanner,R,1,2019_Aug_27_0937,SST,3.0.7,24.04956694702043,
go,sst_images/Right_Arrow.bmp,None,2,986,None,0,119,119,119,,2,1,0.5447511950042099,go,0.2,0.986,1.986,034,Scanner,R,1,2019_Aug_27_0937,SST,3.0.7,24.04956694702043,
go,sst_images/Left_Arrow.bmp,None,1,887,None,0,120,120,120,,1,1,0.5451984500105027,go,0.2,0.887,1.887,034,Scanner,R,1,2019_Aug_27_0937,SST,3.0.7,24.04956694702043,
go,sst_images/Right_Arrow.bmp,None,2,978,None,0,121,121,121,,2,1,0.4671535209927242,go,0.2,0.978,1.978,034,Scanner,R,1,2019_Aug_27_0937,SST,3.0.7,24.04956694702043,
go,sst_images/Right_Arrow.bmp,None,2,729,None,0,122,122,122,,2,1,0.5052121100015938,go,0.2,0.729,1.729,034,Scanner,R,1,2019_Aug_27_0937,SST,3.0.7,24.04956694702043,
go,sst_images/Left_Arrow.bmp,None,1,735,None,0,123,123,123,,1,1,0.5448503270163201,go,0.2,0.735,1.7349999999999999,034,Scanner,R,1,2019_Aug_27_0937,SST,3.0.7,24.04956694702043,
stop,sst_images/Left_Arrow.bmp,sst_images/Stop_Arrow.bmp,none,838,None,0,124,124,124,,None,1,,stop,0.25,0.838,1.8379999999999999,034,Scanner,R,1,2019_Aug_27_0937,SST,3.0.7,24.04956694702043,
go,sst_images/Left_Arrow.bmp,None,1,832,None,0,125,125,125,,1,1,0.8377609940071125,go,0.25,0.832,1.8319999999999999,034,Scanner,R,1,2019_Aug_27_0937,SST,3.0.7,24.04956694702043,
go,sst_images/Left_Arrow.bmp,None,1,714,None,0,126,126,126,,1,1,0.5041934069886338,go,0.25,0.714,1.714,034,Scanner,R,1,2019_Aug_27_0937,SST,3.0.7,24.04956694702043,
go,sst_images/Right_Arrow.bmp,None,2,730,None,0,127,127,127,,2,1,0.4591349299880676,go,0.25,0.73,1.73,034,Scanner,R,1,2019_Aug_27_0937,SST,3.0.7,24.04956694702043,
go,sst_images/Left_Arrow.bmp,None,1,1027,None,0,128,128,128,,1,1,0.5045207339862827,go,0.25,1.027,2.027,034,Scanner,R,1,2019_Aug_27_0937,SST,3.0.7,24.04956694702043,
stop,sst_images/Left_Arrow.bmp,sst_images/Stop_Arrow.bmp,none,796,None,0,129,129,129,,None,1,,stop,0.3,0.796,1.796,034,Scanner,R,1,2019_Aug_27_0937,SST,3.0.7,24.04956694702043,
go,sst_images/Left_Arrow.bmp,None,1,764,None,0,130,130,130,,1,1,0.5460484749928582,go,0.3,0.764,1.764,034,Scanner,R,1,2019_Aug_27_0937,SST,3.0.7,24.04956694702043,
go,sst_images/Left_Arrow.bmp,None,1,742,None,0,131,131,131,,1,1,0.5456766970164608,go,0.3,0.742,1.742,034,Scanner,R,1,2019_Aug_27_0937,SST,3.0.7,24.04956694702043,
stop,sst_images/Right_Arrow.bmp,sst_images/Stop_Arrow.bmp,none,705,None,0,132,132,132,,2,0,0.439589128975058,stop,0.25,0.705,1.8654108710249422,034,Scanner,R,1,2019_Aug_27_0937,SST,3.0.7,24.04956694702043,
go,sst_images/Right_Arrow.bmp,None,2,722,None,0,133,133,133,,2,1,0.5463398130086716,go,0.25,0.722,1.722,034,Scanner,R,1,2019_Aug_27_0937,SST,3.0.7,24.04956694702043,
go,sst_images/Left_Arrow.bmp,None,1,956,None,0,134,134,134,,1,1,0.547363988996949,go,0.25,0.956,1.956,034,Scanner,R,1,2019_Aug_27_0937,SST,3.0.7,24.04956694702043,
go,sst_images/Left_Arrow.bmp,None,1,884,None,0,135,135,135,,1,1,0.5889620620000642,go,0.25,0.884,1.884,034,Scanner,R,1,2019_Aug_27_0937,SST,3.0.7,24.04956694702043,
stop,sst_images/Left_Arrow.bmp,sst_images/Stop_Arrow.bmp,none,722,None,0,136,136,136,,1,0,0.5226063770242035,stop,0.2,0.722,1.7493936229757965,034,Scanner,R,1,2019_Aug_27_0937,SST,3.0.7,24.04956694702043,
go,sst_images/Right_Arrow.bmp,None,2,816,None,0,137,137,137,,2,1,0.5048900049878284,go,0.2,0.816,1.8159999999999998,034,Scanner,R,1,2019_Aug_27_0937,SST,3.0.7,24.04956694702043,
go,sst_images/Right_Arrow.bmp,None,2,846,None,0,138,138,138,,2,1,0.543839277990628,go,0.2,0.846,1.846,034,Scanner,R,1,2019_Aug_27_0937,SST,3.0.7,24.04956694702043,
go,sst_images/Left_Arrow.bmp,None,1,1091,None,0,139,139,139,,1,1,0.5025188500003424,go,0.2,1.091,2.091,034,Scanner,R,1,2019_Aug_27_0937,SST,3.0.7,24.04956694702043,
go,sst_images/Right_Arrow.bmp,None,2,1235,None,0,140,140,140,,2,1,0.7101479089760687,go,0.2,1.235,2.2350000000000003,034,Scanner,R,1,2019_Aug_27_0937,SST,3.0.7,24.04956694702043,
go,sst_images/Left_Arrow.bmp,None,1,834,None,0,141,141,141,,None,0,,go,0.2,0.834,1.834,034,Scanner,R,1,2019_Aug_27_0937,SST,3.0.7,24.04956694702043,
stop,sst_images/Right_Arrow.bmp,sst_images/Stop_Arrow.bmp,none,850,None,0,142,142,142,,None,1,,stop,0.25,0.85,1.8499999999999999,034,Scanner,R,1,2019_Aug_27_0937,SST,3.0.7,24.04956694702043,
go,sst_images/Left_Arrow.bmp,None,1,756,None,0,143,143,143,,1,1,0.834846607001964,go,0.25,0.756,1.756,034,Scanner,R,1,2019_Aug_27_0937,SST,3.0.7,24.04956694702043,
go,sst_images/Right_Arrow.bmp,None,2,846,None,0,144,144,144,,2,1,0.7130561939848121,go,0.25,0.846,1.846,034,Scanner,R,1,2019_Aug_27_0937,SST,3.0.7,24.04956694702043,
go,sst_images/Left_Arrow.bmp,None,1,836,None,0,145,145,145,,1,1,0.5036043869913556,go,0.25,0.836,1.8359999999999999,034,Scanner,R,1,2019_Aug_27_0937,SST,3.0.7,24.04956694702043,
go,sst_images/Right_Arrow.bmp,None,2,1172,None,0,146,146,146,,2,1,0.5019574520119932,go,0.25,1.172,2.1719999999999997,034,Scanner,R,1,2019_Aug_27_0937,SST,3.0.7,24.04956694702043,
stop,sst_images/Right_Arrow.bmp,sst_images/Stop_Arrow.bmp,none,910,None,0,147,147,147,,None,1,,stop,0.3,0.91,1.91,034,Scanner,R,1,2019_Aug_27_0937,SST,3.0.7,24.04956694702043,
go,sst_images/Left_Arrow.bmp,None,1,802,None,0,148,148,148,,1,1,0.5023814849846531,go,0.3,0.802,1.802,034,Scanner,R,1,2019_Aug_27_0937,SST,3.0.7,24.04956694702043,
go,sst_images/Right_Arrow.bmp,None,2,729,None,0,149,149,149,,2,1,0.6670073049899656,go,0.3,0.729,1.729,034,Scanner,R,1,2019_Aug_27_0937,SST,3.0.7,24.04956694702043,
go,sst_images/Right_Arrow.bmp,None,2,838,None,0,150,150,150,,2,1,0.5841591620119289,go,0.3,0.838,1.838,034,Scanner,R,1,2019_Aug_27_0937,SST,3.0.7,24.04956694702043,
stop,sst_images/Left_Arrow.bmp,sst_images/Stop_Arrow.bmp,none,737,None,0,151,151,151,,1,0,0.4840113509853836,stop,0.25,0.737,1.8529886490146166,034,Scanner,R,1,2019_Aug_27_0937,SST,3.0.7,24.04956694702043,
go,sst_images/Left_Arrow.bmp,None,1,902,None,0,152,152,152,,1,1,0.9211583450087346,go,0.25,0.902,1.9020000000000001,034,Scanner,R,1,2019_Aug_27_0937,SST,3.0.7,24.04956694702043,
go,sst_images/Right_Arrow.bmp,None,2,812,None,0,153,153,153,,2,1,0.7121278020204045,go,0.25,0.812,1.812,034,Scanner,R,1,2019_Aug_27_0937,SST,3.0.7,24.04956694702043,
stop,sst_images/Left_Arrow.bmp,sst_images/Stop_Arrow.bmp,none,1014,None,0,154,154,154,,None,1,,stop,0.3,1.014,2.014,034,Scanner,R,1,2019_Aug_27_0937,SST,3.0.7,24.04956694702043,
go,sst_images/Left_Arrow.bmp,None,1,736,None,0,155,155,155,,1,1,0.6289324290119112,go,0.3,0.736,1.736,034,Scanner,R,1,2019_Aug_27_0937,SST,3.0.7,24.04956694702043,
go,sst_images/Right_Arrow.bmp,None,2,1391,None,0,156,156,156,,2,1,0.4634388569975272,go,0.3,1.391,2.391,034,Scanner,R,1,2019_Aug_27_0937,SST,3.0.7,24.04956694702043,
go,sst_images/Left_Arrow.bmp,None,1,816,None,0,157,157,157,,1,1,0.5887688130023889,go,0.3,0.816,1.8159999999999998,034,Scanner,R,1,2019_Aug_27_0937,SST,3.0.7,24.04956694702043,
go,sst_images/Right_Arrow.bmp,None,2,1047,None,0,158,158,158,,2,1,0.503525460982928,go,0.3,1.047,2.0469999999999997,034,Scanner,R,1,2019_Aug_27_0937,SST,3.0.7,24.04956694702043,
stop,sst_images/Left_Arrow.bmp,sst_images/Stop_Arrow.bmp,none,1726,None,0,159,159,159,,1,0,0.5687873990100343,stop,0.25,1.726,2.7572126009899653,034,Scanner,R,1,2019_Aug_27_0937,SST,3.0.7,24.04956694702043,
go,sst_images/Left_Arrow.bmp,None,1,730,None,0,160,160,160,,1,1,0.6314121879986487,go,0.25,0.73,1.73,034,Scanner,R,1,2019_Aug_27_0937,SST,3.0.7,24.04956694702043,
go,sst_images/Left_Arrow.bmp,None,1,870,None,0,161,161,161,,1,1,0.580509671010077,go,0.25,0.87,1.87,034,Scanner,R,1,2019_Aug_27_0937,SST,3.0.7,24.04956694702043,
go,sst_images/Right_Arrow.bmp,None,2,1053,None,0,162,162,162,,2,1,0.544656871992629,go,0.25,1.053,2.053,034,Scanner,R,1,2019_Aug_27_0937,SST,3.0.7,24.04956694702043,
go,sst_images/Left_Arrow.bmp,None,1,958,None,0,163,163,163,,1,1,0.5850612909998745,go,0.25,0.958,1.958,034,Scanner,R,1,2019_Aug_27_0937,SST,3.0.7,24.04956694702043,
go,sst_images/Right_Arrow.bmp,None,2,1014,None,0,164,164,164,,2,1,0.5012097870057914,go,0.25,1.014,2.0140000000000002,034,Scanner,R,1,2019_Aug_27_0937,SST,3.0.7,24.04956694702043,
go,sst_images/Right_Arrow.bmp,None,2,802,None,0,165,165,165,,2,1,0.7115585010033101,go,0.25,0.802,1.802,034,Scanner,R,1,2019_Aug_27_0937,SST,3.0.7,24.04956694702043,
go,sst_images/Right_Arrow.bmp,None,2,784,None,0,166,166,166,,2,1,0.7108811440120917,go,0.25,0.784,1.784,034,Scanner,R,1,2019_Aug_27_0937,SST,3.0.7,24.04956694702043,
stop,sst_images/Right_Arrow.bmp,sst_images/Stop_Arrow.bmp,none,718,None,0,167,167,167,,2,0,0.5875894049822818,stop,0.2,0.718,1.6804105950177182,034,Scanner,R,1,2019_Aug_27_0937,SST,3.0.7,24.04956694702043,
go,sst_images/Left_Arrow.bmp,None,1,1038,None,0,168,168,168,,1,1,0.6275513479777146,go,0.2,1.038,2.0380000000000003,034,Scanner,R,1,2019_Aug_27_0937,SST,3.0.7,24.04956694702043,
go,sst_images/Right_Arrow.bmp,None,2,705,None,0,169,169,169,,2,1,0.7140021389932372,go,0.2,0.705,1.705,034,Scanner,R,1,2019_Aug_27_0937,SST,3.0.7,24.04956694702043,
go,sst_images/Right_Arrow.bmp,None,2,853,None,0,170,170,170,,2,1,0.8368195359944366,go,0.2,0.853,1.853,034,Scanner,R,1,2019_Aug_27_0937,SST,3.0.7,24.04956694702043,
go,sst_images/Left_Arrow.bmp,None,1,861,None,0,171,171,171,,1,1,0.9201325920003001,go,0.2,0.861,1.861,034,Scanner,R,1,2019_Aug_27_0937,SST,3.0.7,24.04956694702043,
go,sst_images/Right_Arrow.bmp,None,2,1280,None,0,172,172,172,,2,1,0.5866903249989264,go,0.2,1.28,2.2800000000000002,034,Scanner,R,1,2019_Aug_27_0937,SST,3.0.7,24.04956694702043,
stop,sst_images/Left_Arrow.bmp,sst_images/Stop_Arrow.bmp,none,1026,None,0,173,173,173,,None,1,,stop,0.25,1.026,2.026,034,Scanner,R,1,2019_Aug_27_0937,SST,3.0.7,24.04956694702043,
go,sst_images/Right_Arrow.bmp,None,2,1176,None,0,174,174,174,,2,1,0.5457050710101612,go,0.25,1.176,2.176,034,Scanner,R,1,2019_Aug_27_0937,SST,3.0.7,24.04956694702043,
go,sst_images/Right_Arrow.bmp,None,2,782,None,0,175,175,175,,2,1,0.6278083299985155,go,0.25,0.782,1.782,034,Scanner,R,1,2019_Aug_27_0937,SST,3.0.7,24.04956694702043,
go,sst_images/Left_Arrow.bmp,None,1,881,None,0,176,176,176,,1,1,0.5884788589901291,go,0.25,0.881,1.881,034,Scanner,R,1,2019_Aug_27_0937,SST,3.0.7,24.04956694702043,
go,sst_images/Right_Arrow.bmp,None,2,1235,None,0,177,177,177,,2,1,0.795365755999228,go,0.25,1.235,2.2350000000000003,034,Scanner,R,1,2019_Aug_27_0937,SST,3.0.7,24.04956694702043,
go,sst_images/Left_Arrow.bmp,None,1,1432,None,0,178,178,178,,1,1,0.5502280700020492,go,0.25,1.432,2.432,034,Scanner,R,1,2019_Aug_27_0937,SST,3.0.7,24.04956694702043,
go,sst_images/Right_Arrow.bmp,None,2,750,4023.0,0,179,179,179,,2,1,0.545167775999289,go,0.25,0.75,1.75,034,Scanner,R,1,2019_Aug_27_0937,SST,3.0.7,24.04956694702043,
