trial_type,arrow_1,arrow_2,corrAns,jitter,run_end_fixation,trials.thisRepN,trials.thisTrialN,trials.thisN,trials.thisIndex,randomized TrialOrder,key_response.keys,key_response.corr,key_response.rt,trial_t.routineEndVal,ss_delay,iti_duration,SOA,participant,prac_or_scan,handedness,run,date,expName,psychopyVersion,frameRate,
go,sst_images/Left_Arrow.bmp,None,1,720,None,0,0,0,0,6,1,1,0.570675672031939,go,0.05,0.72,1.72,035,Scanner,L,1,2019_Sep_01_0940,SST,3.0.7,60.12099893201546,
go,sst_images/Right_Arrow.bmp,None,2,815,None,0,1,1,1,,2,1,0.40239280101377517,go,0.05,0.815,1.815,035,Scanner,L,1,2019_Sep_01_0940,SST,3.0.7,60.12099893201546,
go,sst_images/Right_Arrow.bmp,None,2,769,None,0,2,2,2,,2,1,0.40414768300252035,go,0.05,0.769,1.7690000000000001,035,Scanner,L,1,2019_Sep_01_0940,SST,3.0.7,60.12099893201546,
go,sst_images/Left_Arrow.bmp,None,1,816,None,0,3,3,3,,1,1,0.4037440860411152,go,0.05,0.816,1.8159999999999998,035,Scanner,L,1,2019_Sep_01_0940,SST,3.0.7,60.12099893201546,
stop,sst_images/Right_Arrow.bmp,sst_images/Stop_Arrow.bmp,none,721,None,0,4,4,4,,None,1,,stop,0.1,0.721,1.721,035,Scanner,L,1,2019_Sep_01_0940,SST,3.0.7,60.12099893201546,
go,sst_images/Left_Arrow.bmp,None,1,888,None,0,5,5,5,,1,1,0.5043324870057404,go,0.1,0.888,1.888,035,Scanner,L,1,2019_Sep_01_0940,SST,3.0.7,60.12099893201546,
go,sst_images/Right_Arrow.bmp,None,2,900,None,0,6,6,6,,2,1,0.32007587602129206,go,0.1,0.9,1.9,035,Scanner,L,1,2019_Sep_01_0940,SST,3.0.7,60.12099893201546,
go,sst_images/Left_Arrow.bmp,None,1,1264,None,0,7,7,7,,1,1,0.33670192101271823,go,0.1,1.264,2.2640000000000002,035,Scanner,L,1,2019_Sep_01_0940,SST,3.0.7,60.12099893201546,
go,sst_images/Right_Arrow.bmp,None,2,744,None,0,8,8,8,,2,1,0.33629822998773307,go,0.1,0.744,1.744,035,Scanner,L,1,2019_Sep_01_0940,SST,3.0.7,60.12099893201546,
go,sst_images/Right_Arrow.bmp,None,2,794,None,0,9,9,9,,2,1,0.4540391680202447,go,0.1,0.794,1.794,035,Scanner,L,1,2019_Sep_01_0940,SST,3.0.7,60.12099893201546,
go,sst_images/Left_Arrow.bmp,None,1,901,None,0,10,10,10,,1,1,0.43734078301349655,go,0.1,0.901,1.901,035,Scanner,L,1,2019_Sep_01_0940,SST,3.0.7,60.12099893201546,
go,sst_images/Right_Arrow.bmp,None,2,882,None,0,11,11,11,,2,1,0.37137583503499627,go,0.1,0.882,1.8820000000000001,035,Scanner,L,1,2019_Sep_01_0940,SST,3.0.7,60.12099893201546,
go,sst_images/Left_Arrow.bmp,None,1,732,None,0,12,12,12,,1,1,0.39485817099921405,go,0.1,0.732,1.732,035,Scanner,L,1,2019_Sep_01_0940,SST,3.0.7,60.12099893201546,
go,sst_images/Left_Arrow.bmp,None,1,1173,None,0,13,13,13,,1,1,0.43625148601131514,go,0.1,1.173,2.173,035,Scanner,L,1,2019_Sep_01_0940,SST,3.0.7,60.12099893201546,
stop,sst_images/Left_Arrow.bmp,sst_images/Stop_Arrow.bmp,none,1189,None,0,14,14,14,,None,1,,stop,0.15000000000000002,1.189,2.189,035,Scanner,L,1,2019_Sep_01_0940,SST,3.0.7,60.12099893201546,
go,sst_images/Left_Arrow.bmp,None,1,755,None,0,15,15,15,,1,1,0.41099867603043094,go,0.15000000000000002,0.755,1.755,035,Scanner,L,1,2019_Sep_01_0940,SST,3.0.7,60.12099893201546,
go,sst_images/Right_Arrow.bmp,None,2,806,None,0,16,16,16,,2,1,0.377190395956859,go,0.15000000000000002,0.806,1.806,035,Scanner,L,1,2019_Sep_01_0940,SST,3.0.7,60.12099893201546,
stop,sst_images/Left_Arrow.bmp,sst_images/Stop_Arrow.bmp,none,924,None,0,17,17,17,,1,0,0.31969550799112767,stop,0.10000000000000002,0.924,2.054304492008872,035,Scanner,L,1,2019_Sep_01_0940,SST,3.0.7,60.12099893201546,
go,sst_images/Left_Arrow.bmp,None,1,1139,None,0,18,18,18,,1,1,0.3937496620346792,go,0.10000000000000002,1.139,2.1390000000000002,035,Scanner,L,1,2019_Sep_01_0940,SST,3.0.7,60.12099893201546,
go,sst_images/Left_Arrow.bmp,None,1,725,None,0,19,19,19,,1,1,0.36995374597609043,go,0.10000000000000002,0.725,1.725,035,Scanner,L,1,2019_Sep_01_0940,SST,3.0.7,60.12099893201546,
go,sst_images/Right_Arrow.bmp,None,2,974,None,0,20,20,20,,2,1,0.404928217001725,go,0.10000000000000002,0.974,1.974,035,Scanner,L,1,2019_Sep_01_0940,SST,3.0.7,60.12099893201546,
stop,sst_images/Right_Arrow.bmp,sst_images/Stop_Arrow.bmp,none,729,None,0,21,21,21,,None,1,,stop,0.15000000000000002,0.729,1.729,035,Scanner,L,1,2019_Sep_01_0940,SST,3.0.7,60.12099893201546,
go,sst_images/Left_Arrow.bmp,None,1,744,None,0,22,22,22,,1,1,0.3433061789837666,go,0.15000000000000002,0.744,1.744,035,Scanner,L,1,2019_Sep_01_0940,SST,3.0.7,60.12099893201546,
go,sst_images/Right_Arrow.bmp,None,2,1598,None,0,23,23,23,,2,1,0.3916316889808513,go,0.15000000000000002,1.598,2.598,035,Scanner,L,1,2019_Sep_01_0940,SST,3.0.7,60.12099893201546,
go,sst_images/Left_Arrow.bmp,None,1,992,None,0,24,24,24,,1,1,0.4931422969675623,go,0.15000000000000002,0.992,1.992,035,Scanner,L,1,2019_Sep_01_0940,SST,3.0.7,60.12099893201546,
go,sst_images/Right_Arrow.bmp,None,2,1022,None,0,25,25,25,,2,1,0.3430960309924558,go,0.15000000000000002,1.022,2.0220000000000002,035,Scanner,L,1,2019_Sep_01_0940,SST,3.0.7,60.12099893201546,
stop,sst_images/Right_Arrow.bmp,sst_images/Stop_Arrow.bmp,none,929,None,0,26,26,26,,2,0,0.42741632502293214,stop,0.10000000000000002,0.929,1.951583674977068,035,Scanner,L,1,2019_Sep_01_0940,SST,3.0.7,60.12099893201546,
go,sst_images/Right_Arrow.bmp,None,2,1590,None,0,27,27,27,,2,1,0.37594168400391936,go,0.10000000000000002,1.59,2.59,035,Scanner,L,1,2019_Sep_01_0940,SST,3.0.7,60.12099893201546,
go,sst_images/Left_Arrow.bmp,None,1,1317,None,0,28,28,28,,1,1,0.3765320890233852,go,0.10000000000000002,1.317,2.317,035,Scanner,L,1,2019_Sep_01_0940,SST,3.0.7,60.12099893201546,
go,sst_images/Right_Arrow.bmp,None,2,832,None,0,29,29,29,,2,1,0.41985301102977246,go,0.10000000000000002,0.832,1.8319999999999999,035,Scanner,L,1,2019_Sep_01_0940,SST,3.0.7,60.12099893201546,
go,sst_images/Right_Arrow.bmp,None,2,956,None,0,30,30,30,,2,1,0.3758366009569727,go,0.10000000000000002,0.956,1.956,035,Scanner,L,1,2019_Sep_01_0940,SST,3.0.7,60.12099893201546,
go,sst_images/Left_Arrow.bmp,None,1,761,None,0,31,31,31,,1,1,0.55943878198741,go,0.10000000000000002,0.761,1.7610000000000001,035,Scanner,L,1,2019_Sep_01_0940,SST,3.0.7,60.12099893201546,
go,sst_images/Right_Arrow.bmp,None,2,709,None,0,32,32,32,,2,1,0.38761261804029346,go,0.10000000000000002,0.709,1.709,035,Scanner,L,1,2019_Sep_01_0940,SST,3.0.7,60.12099893201546,
stop,sst_images/Left_Arrow.bmp,sst_images/Stop_Arrow.bmp,none,721,None,0,33,33,33,,1,0,0.3546488090069033,stop,0.05000000000000002,0.721,1.766351190993097,035,Scanner,L,1,2019_Sep_01_0940,SST,3.0.7,60.12099893201546,
go,sst_images/Left_Arrow.bmp,None,1,785,None,0,34,34,34,,1,1,0.3916180729866028,go,0.05000000000000002,0.785,1.7850000000000001,035,Scanner,L,1,2019_Sep_01_0940,SST,3.0.7,60.12099893201546,
go,sst_images/Left_Arrow.bmp,None,1,1022,None,0,35,35,35,,1,1,0.3913330399664119,go,0.05000000000000002,1.022,2.0220000000000002,035,Scanner,L,1,2019_Sep_01_0940,SST,3.0.7,60.12099893201546,
go,sst_images/Right_Arrow.bmp,None,2,2000,None,0,36,36,36,,2,1,0.37483070901362225,go,0.05000000000000002,2.0,3.0,035,Scanner,L,1,2019_Sep_01_0940,SST,3.0.7,60.12099893201546,
go,sst_images/Right_Arrow.bmp,None,2,749,None,0,37,37,37,,2,1,0.6099355079932138,go,0.05000000000000002,0.749,1.749,035,Scanner,L,1,2019_Sep_01_0940,SST,3.0.7,60.12099893201546,
go,sst_images/Left_Arrow.bmp,None,1,826,None,0,38,38,38,,1,1,0.47430086199892685,go,0.05000000000000002,0.826,1.826,035,Scanner,L,1,2019_Sep_01_0940,SST,3.0.7,60.12099893201546,
go,sst_images/Left_Arrow.bmp,None,1,722,None,0,39,39,39,,1,1,0.4426094089867547,go,0.05000000000000002,0.722,1.722,035,Scanner,L,1,2019_Sep_01_0940,SST,3.0.7,60.12099893201546,
go,sst_images/Right_Arrow.bmp,None,2,749,None,0,40,40,40,,2,1,0.3419646670226939,go,0.05000000000000002,0.749,1.749,035,Scanner,L,1,2019_Sep_01_0940,SST,3.0.7,60.12099893201546,
go,sst_images/Left_Arrow.bmp,None,1,846,None,0,41,41,41,,1,1,0.3231197649729438,go,0.05000000000000002,0.846,1.846,035,Scanner,L,1,2019_Sep_01_0940,SST,3.0.7,60.12099893201546,
go,sst_images/Left_Arrow.bmp,None,1,792,None,0,42,42,42,,2,0,0.3758180540171452,go,0.05000000000000002,0.792,1.792,035,Scanner,L,1,2019_Sep_01_0940,SST,3.0.7,60.12099893201546,
stop,sst_images/Right_Arrow.bmp,sst_images/Stop_Arrow.bmp,none,775,None,0,43,43,43,,2,0,0.3713912020321004,stop,1.3877787807814457e-17,0.775,1.7536087979678996,035,Scanner,L,1,2019_Sep_01_0940,SST,3.0.7,60.12099893201546,
go,sst_images/Right_Arrow.bmp,None,2,733,None,0,44,44,44,,2,1,0.35794307896867394,go,1.3877787807814457e-17,0.733,1.733,035,Scanner,L,1,2019_Sep_01_0940,SST,3.0.7,60.12099893201546,
go,sst_images/Right_Arrow.bmp,None,2,723,None,0,45,45,45,,2,1,0.4022759330109693,go,1.3877787807814457e-17,0.723,1.7229999999999999,035,Scanner,L,1,2019_Sep_01_0940,SST,3.0.7,60.12099893201546,
go,sst_images/Right_Arrow.bmp,None,2,916,None,0,46,46,46,,2,1,0.35824973502894863,go,1.3877787807814457e-17,0.916,1.916,035,Scanner,L,1,2019_Sep_01_0940,SST,3.0.7,60.12099893201546,
stop,sst_images/Right_Arrow.bmp,sst_images/Stop_Arrow.bmp,none,851,None,0,47,47,47,,None,1,,stop,0.05000000000000002,0.851,1.851,035,Scanner,L,1,2019_Sep_01_0940,SST,3.0.7,60.12099893201546,
go,sst_images/Left_Arrow.bmp,None,1,744,None,0,48,48,48,,1,1,0.3871977509697899,go,0.05000000000000002,0.744,1.744,035,Scanner,L,1,2019_Sep_01_0940,SST,3.0.7,60.12099893201546,
go,sst_images/Left_Arrow.bmp,None,1,2000,None,0,49,49,49,,1,1,0.3869562830077484,go,0.05000000000000002,2.0,3.0,035,Scanner,L,1,2019_Sep_01_0940,SST,3.0.7,60.12099893201546,
go,sst_images/Left_Arrow.bmp,None,1,1200,None,0,50,50,50,,1,1,0.43563745298888534,go,0.05000000000000002,1.2,2.2,035,Scanner,L,1,2019_Sep_01_0940,SST,3.0.7,60.12099893201546,
go,sst_images/Right_Arrow.bmp,None,2,809,None,0,51,51,51,,2,1,0.6032879599952139,go,0.05000000000000002,0.809,1.8090000000000002,035,Scanner,L,1,2019_Sep_01_0940,SST,3.0.7,60.12099893201546,
go,sst_images/Right_Arrow.bmp,None,2,790,None,0,52,52,52,,2,1,0.41881543199997395,go,0.05000000000000002,0.79,1.79,035,Scanner,L,1,2019_Sep_01_0940,SST,3.0.7,60.12099893201546,
stop,sst_images/Left_Arrow.bmp,sst_images/Stop_Arrow.bmp,none,816,None,0,53,53,53,,None,1,,stop,0.10000000000000002,0.816,1.8159999999999998,035,Scanner,L,1,2019_Sep_01_0940,SST,3.0.7,60.12099893201546,
go,sst_images/Left_Arrow.bmp,None,1,816,None,0,54,54,54,,1,1,0.43942585901822895,go,0.10000000000000002,0.816,1.8159999999999998,035,Scanner,L,1,2019_Sep_01_0940,SST,3.0.7,60.12099893201546,
go,sst_images/Left_Arrow.bmp,None,1,721,None,0,55,55,55,,1,1,0.370023000985384,go,0.10000000000000002,0.721,1.721,035,Scanner,L,1,2019_Sep_01_0940,SST,3.0.7,60.12099893201546,
go,sst_images/Left_Arrow.bmp,None,1,1164,None,0,56,56,56,,1,1,0.4891805580118671,go,0.10000000000000002,1.164,2.1639999999999997,035,Scanner,L,1,2019_Sep_01_0940,SST,3.0.7,60.12099893201546,
go,sst_images/Right_Arrow.bmp,None,2,839,None,0,57,57,57,,2,1,0.40427216299576685,go,0.10000000000000002,0.839,1.839,035,Scanner,L,1,2019_Sep_01_0940,SST,3.0.7,60.12099893201546,
go,sst_images/Left_Arrow.bmp,None,1,761,None,0,58,58,58,,1,1,0.5052948300144635,go,0.10000000000000002,0.761,1.7610000000000001,035,Scanner,L,1,2019_Sep_01_0940,SST,3.0.7,60.12099893201546,
stop,sst_images/Right_Arrow.bmp,sst_images/Stop_Arrow.bmp,none,886,None,0,59,59,59,,None,1,,stop,0.15000000000000002,0.886,1.8860000000000001,035,Scanner,L,1,2019_Sep_01_0940,SST,3.0.7,60.12099893201546,
go,sst_images/Left_Arrow.bmp,None,1,805,None,0,60,60,60,,1,1,0.4395131600322202,go,0.15000000000000002,0.805,1.8050000000000002,035,Scanner,L,1,2019_Sep_01_0940,SST,3.0.7,60.12099893201546,
stop,sst_images/Left_Arrow.bmp,sst_images/Stop_Arrow.bmp,none,976,None,0,61,61,61,,1,0,0.37057881301734596,stop,0.10000000000000002,0.976,2.0554211869826537,035,Scanner,L,1,2019_Sep_01_0940,SST,3.0.7,60.12099893201546,
go,sst_images/Right_Arrow.bmp,None,2,707,None,0,62,62,62,,2,1,0.4559433039976284,go,0.10000000000000002,0.707,1.7069999999999999,035,Scanner,L,1,2019_Sep_01_0940,SST,3.0.7,60.12099893201546,
go,sst_images/Right_Arrow.bmp,None,2,927,None,0,63,63,63,,2,1,0.4055162339936942,go,0.10000000000000002,0.927,1.927,035,Scanner,L,1,2019_Sep_01_0940,SST,3.0.7,60.12099893201546,
go,sst_images/Left_Arrow.bmp,None,1,908,None,0,64,64,64,,1,1,0.4018394490121864,go,0.10000000000000002,0.908,1.908,035,Scanner,L,1,2019_Sep_01_0940,SST,3.0.7,60.12099893201546,
stop,sst_images/Right_Arrow.bmp,sst_images/Stop_Arrow.bmp,none,852,None,0,65,65,65,,None,1,,stop,0.15000000000000002,0.852,1.852,035,Scanner,L,1,2019_Sep_01_0940,SST,3.0.7,60.12099893201546,
go,sst_images/Right_Arrow.bmp,None,2,1233,None,0,66,66,66,,2,1,0.4715563139761798,go,0.15000000000000002,1.233,2.233,035,Scanner,L,1,2019_Sep_01_0940,SST,3.0.7,60.12099893201546,
go,sst_images/Left_Arrow.bmp,None,1,1097,None,0,67,67,67,,1,1,0.4210481920163147,go,0.15000000000000002,1.097,2.097,035,Scanner,L,1,2019_Sep_01_0940,SST,3.0.7,60.12099893201546,
go,sst_images/Right_Arrow.bmp,None,2,772,None,0,68,68,68,,2,1,0.40524672099854797,go,0.15000000000000002,0.772,1.772,035,Scanner,L,1,2019_Sep_01_0940,SST,3.0.7,60.12099893201546,
go,sst_images/Right_Arrow.bmp,None,2,841,None,0,69,69,69,,2,1,0.42035070998826995,go,0.15000000000000002,0.841,1.841,035,Scanner,L,1,2019_Sep_01_0940,SST,3.0.7,60.12099893201546,
go,sst_images/Left_Arrow.bmp,None,1,803,None,0,70,70,70,,1,1,0.40273546299431473,go,0.15000000000000002,0.803,1.803,035,Scanner,L,1,2019_Sep_01_0940,SST,3.0.7,60.12099893201546,
go,sst_images/Right_Arrow.bmp,None,2,791,None,0,71,71,71,,2,1,0.4214043190004304,go,0.15000000000000002,0.791,1.791,035,Scanner,L,1,2019_Sep_01_0940,SST,3.0.7,60.12099893201546,
go,sst_images/Left_Arrow.bmp,None,1,790,None,0,72,72,72,,1,1,0.5210655549890362,go,0.15000000000000002,0.79,1.79,035,Scanner,L,1,2019_Sep_01_0940,SST,3.0.7,60.12099893201546,
go,sst_images/Right_Arrow.bmp,None,2,1087,None,0,73,73,73,,2,1,0.42027603299356997,go,0.15000000000000002,1.087,2.0869999999999997,035,Scanner,L,1,2019_Sep_01_0940,SST,3.0.7,60.12099893201546,
go,sst_images/Left_Arrow.bmp,None,1,817,None,0,74,74,74,,1,1,0.3379229700076394,go,0.15000000000000002,0.817,1.817,035,Scanner,L,1,2019_Sep_01_0940,SST,3.0.7,60.12099893201546,
stop,sst_images/Right_Arrow.bmp,sst_images/Stop_Arrow.bmp,none,747,None,0,75,75,75,,2,0,0.35347927699331194,stop,0.10000000000000002,0.747,1.843520723006688,035,Scanner,L,1,2019_Sep_01_0940,SST,3.0.7,60.12099893201546,
go,sst_images/Right_Arrow.bmp,None,2,808,None,0,76,76,76,,2,1,0.40438167098909616,go,0.10000000000000002,0.808,1.808,035,Scanner,L,1,2019_Sep_01_0940,SST,3.0.7,60.12099893201546,
go,sst_images/Right_Arrow.bmp,None,2,1279,None,0,77,77,77,,2,1,0.41939714300679043,go,0.10000000000000002,1.279,2.279,035,Scanner,L,1,2019_Sep_01_0940,SST,3.0.7,60.12099893201546,
go,sst_images/Left_Arrow.bmp,None,1,759,None,0,78,78,78,,1,1,0.3375335799646564,go,0.10000000000000002,0.759,1.759,035,Scanner,L,1,2019_Sep_01_0940,SST,3.0.7,60.12099893201546,
go,sst_images/Left_Arrow.bmp,None,1,776,None,0,79,79,79,,2,0,0.3191166709875688,go,0.10000000000000002,0.776,1.776,035,Scanner,L,1,2019_Sep_01_0940,SST,3.0.7,60.12099893201546,
go,sst_images/Right_Arrow.bmp,None,2,746,None,0,80,80,80,,2,1,0.3704777509556152,go,0.10000000000000002,0.746,1.746,035,Scanner,L,1,2019_Sep_01_0940,SST,3.0.7,60.12099893201546,
stop,sst_images/Left_Arrow.bmp,sst_images/Stop_Arrow.bmp,none,760,None,0,81,81,81,,1,0,0.3688545760232955,stop,0.05000000000000002,0.76,1.7911454239767046,035,Scanner,L,1,2019_Sep_01_0940,SST,3.0.7,60.12099893201546,
go,sst_images/Right_Arrow.bmp,None,2,929,None,0,82,82,82,,2,1,0.45259272400289774,go,0.05000000000000002,0.929,1.929,035,Scanner,L,1,2019_Sep_01_0940,SST,3.0.7,60.12099893201546,
go,sst_images/Right_Arrow.bmp,None,2,705,None,0,83,83,83,,2,1,0.38699807901866734,go,0.05000000000000002,0.705,1.705,035,Scanner,L,1,2019_Sep_01_0940,SST,3.0.7,60.12099893201546,
go,sst_images/Left_Arrow.bmp,None,1,1410,None,0,84,84,84,,1,1,0.4039317150018178,go,0.05000000000000002,1.41,2.41,035,Scanner,L,1,2019_Sep_01_0940,SST,3.0.7,60.12099893201546,
go,sst_images/Left_Arrow.bmp,None,1,1410,None,0,85,85,85,,1,1,0.3545064530335367,go,0.05000000000000002,1.41,2.41,035,Scanner,L,1,2019_Sep_01_0940,SST,3.0.7,60.12099893201546,
go,sst_images/Right_Arrow.bmp,None,2,766,None,0,86,86,86,,2,1,0.5212713010259904,go,0.05000000000000002,0.766,1.766,035,Scanner,L,1,2019_Sep_01_0940,SST,3.0.7,60.12099893201546,
go,sst_images/Left_Arrow.bmp,None,1,866,None,0,87,87,87,,1,1,0.40398106101201847,go,0.05000000000000002,0.866,1.866,035,Scanner,L,1,2019_Sep_01_0940,SST,3.0.7,60.12099893201546,
go,sst_images/Right_Arrow.bmp,None,2,820,None,0,88,88,88,,2,1,0.3882809540373273,go,0.05000000000000002,0.82,1.8199999999999998,035,Scanner,L,1,2019_Sep_01_0940,SST,3.0.7,60.12099893201546,
go,sst_images/Left_Arrow.bmp,None,1,894,None,0,89,89,89,,1,1,0.35198166698683053,go,0.05000000000000002,0.894,1.8940000000000001,035,Scanner,L,1,2019_Sep_01_0940,SST,3.0.7,60.12099893201546,
stop,sst_images/Right_Arrow.bmp,sst_images/Stop_Arrow.bmp,none,764,None,0,90,90,90,,None,1,,stop,0.10000000000000002,0.764,1.764,035,Scanner,L,1,2019_Sep_01_0940,SST,3.0.7,60.12099893201546,
go,sst_images/Right_Arrow.bmp,None,2,1189,None,0,91,91,91,,2,1,0.38754264399176463,go,0.10000000000000002,1.189,2.189,035,Scanner,L,1,2019_Sep_01_0940,SST,3.0.7,60.12099893201546,
go,sst_images/Left_Arrow.bmp,None,1,852,None,0,92,92,92,,1,1,0.3528022789978422,go,0.10000000000000002,0.852,1.8519999999999999,035,Scanner,L,1,2019_Sep_01_0940,SST,3.0.7,60.12099893201546,
go,sst_images/Left_Arrow.bmp,None,1,1097,None,0,93,93,93,,1,1,0.38760853302665055,go,0.10000000000000002,1.097,2.097,035,Scanner,L,1,2019_Sep_01_0940,SST,3.0.7,60.12099893201546,
stop,sst_images/Right_Arrow.bmp,sst_images/Stop_Arrow.bmp,none,710,None,0,94,94,94,,None,1,,stop,0.15000000000000002,0.71,1.7100000000000002,035,Scanner,L,1,2019_Sep_01_0940,SST,3.0.7,60.12099893201546,
go,sst_images/Left_Arrow.bmp,None,1,765,None,0,95,95,95,,1,1,0.3860697469790466,go,0.15000000000000002,0.765,1.7650000000000001,035,Scanner,L,1,2019_Sep_01_0940,SST,3.0.7,60.12099893201546,
go,sst_images/Right_Arrow.bmp,None,2,836,None,0,96,96,96,,2,1,0.40533922298345715,go,0.15000000000000002,0.836,1.8359999999999999,035,Scanner,L,1,2019_Sep_01_0940,SST,3.0.7,60.12099893201546,
go,sst_images/Left_Arrow.bmp,None,1,858,None,0,97,97,97,,1,1,0.3701148380059749,go,0.15000000000000002,0.858,1.858,035,Scanner,L,1,2019_Sep_01_0940,SST,3.0.7,60.12099893201546,
go,sst_images/Right_Arrow.bmp,None,2,846,None,0,98,98,98,,2,1,0.3527727050241083,go,0.15000000000000002,0.846,1.846,035,Scanner,L,1,2019_Sep_01_0940,SST,3.0.7,60.12099893201546,
go,sst_images/Right_Arrow.bmp,None,2,937,None,0,99,99,99,,2,1,0.5238129749777727,go,0.15000000000000002,0.937,1.937,035,Scanner,L,1,2019_Sep_01_0940,SST,3.0.7,60.12099893201546,
stop,sst_images/Left_Arrow.bmp,sst_images/Stop_Arrow.bmp,none,761,None,0,100,100,100,,1,0,0.3711513699963689,stop,0.10000000000000002,0.761,1.8398486300036312,035,Scanner,L,1,2019_Sep_01_0940,SST,3.0.7,60.12099893201546,
go,sst_images/Left_Arrow.bmp,None,1,745,None,0,101,101,101,,1,1,0.3532085999613628,go,0.10000000000000002,0.745,1.745,035,Scanner,L,1,2019_Sep_01_0940,SST,3.0.7,60.12099893201546,
go,sst_images/Right_Arrow.bmp,None,2,1538,None,0,102,102,102,,2,1,0.5039716300088912,go,0.10000000000000002,1.538,2.5380000000000003,035,Scanner,L,1,2019_Sep_01_0940,SST,3.0.7,60.12099893201546,
go,sst_images/Right_Arrow.bmp,None,2,716,None,0,103,103,103,,2,1,0.38780844199936837,go,0.10000000000000002,0.716,1.716,035,Scanner,L,1,2019_Sep_01_0940,SST,3.0.7,60.12099893201546,
stop,sst_images/Left_Arrow.bmp,sst_images/Stop_Arrow.bmp,none,1093,None,0,104,104,104,,1,0,0.3528999860282056,stop,0.05000000000000002,1.093,2.1401000139717943,035,Scanner,L,1,2019_Sep_01_0940,SST,3.0.7,60.12099893201546,
go,sst_images/Left_Arrow.bmp,None,1,717,None,0,105,105,105,,1,1,0.4038893440156244,go,0.05000000000000002,0.717,1.717,035,Scanner,L,1,2019_Sep_01_0940,SST,3.0.7,60.12099893201546,
go,sst_images/Left_Arrow.bmp,None,1,1018,None,0,106,106,106,,1,1,0.3878070400096476,go,0.05000000000000002,1.018,2.018,035,Scanner,L,1,2019_Sep_01_0940,SST,3.0.7,60.12099893201546,
go,sst_images/Right_Arrow.bmp,None,2,768,None,0,107,107,107,,2,1,0.387327186006587,go,0.05000000000000002,0.768,1.768,035,Scanner,L,1,2019_Sep_01_0940,SST,3.0.7,60.12099893201546,
stop,sst_images/Right_Arrow.bmp,sst_images/Stop_Arrow.bmp,none,717,None,0,108,108,108,,None,1,,stop,0.10000000000000002,0.717,1.717,035,Scanner,L,1,2019_Sep_01_0940,SST,3.0.7,60.12099893201546,
go,sst_images/Right_Arrow.bmp,None,2,1081,None,0,109,109,109,,2,1,0.4212684369995259,go,0.10000000000000002,1.081,2.081,035,Scanner,L,1,2019_Sep_01_0940,SST,3.0.7,60.12099893201546,
go,sst_images/Left_Arrow.bmp,None,1,765,None,0,110,110,110,,1,1,0.3358640820370056,go,0.10000000000000002,0.765,1.7650000000000001,035,Scanner,L,1,2019_Sep_01_0940,SST,3.0.7,60.12099893201546,
go,sst_images/Right_Arrow.bmp,None,2,858,None,0,111,111,111,,2,1,0.41969538398552686,go,0.10000000000000002,0.858,1.858,035,Scanner,L,1,2019_Sep_01_0940,SST,3.0.7,60.12099893201546,
go,sst_images/Left_Arrow.bmp,None,1,1408,None,0,112,112,112,,1,1,0.4340855749906041,go,0.10000000000000002,1.408,2.408,035,Scanner,L,1,2019_Sep_01_0940,SST,3.0.7,60.12099893201546,
go,sst_images/Right_Arrow.bmp,None,2,1262,None,0,113,113,113,,2,1,0.5215231669717468,go,0.10000000000000002,1.262,2.262,035,Scanner,L,1,2019_Sep_01_0940,SST,3.0.7,60.12099893201546,
stop,sst_images/Left_Arrow.bmp,sst_images/Stop_Arrow.bmp,none,755,None,0,114,114,114,,None,1,,stop,0.15000000000000002,0.755,1.7550000000000001,035,Scanner,L,1,2019_Sep_01_0940,SST,3.0.7,60.12099893201546,
go,sst_images/Left_Arrow.bmp,None,1,1408,None,0,115,115,115,,1,1,0.4354544290108606,go,0.15000000000000002,1.408,2.408,035,Scanner,L,1,2019_Sep_01_0940,SST,3.0.7,60.12099893201546,
go,sst_images/Right_Arrow.bmp,None,2,703,None,0,116,116,116,,2,1,0.35467107099248096,go,0.15000000000000002,0.703,1.7029999999999998,035,Scanner,L,1,2019_Sep_01_0940,SST,3.0.7,60.12099893201546,
go,sst_images/Left_Arrow.bmp,None,1,731,None,0,117,117,117,,1,1,0.42100825597299263,go,0.15000000000000002,0.731,1.7309999999999999,035,Scanner,L,1,2019_Sep_01_0940,SST,3.0.7,60.12099893201546,
go,sst_images/Right_Arrow.bmp,None,2,2000,None,0,118,118,118,,2,1,0.35319629800505936,go,0.15000000000000002,2.0,3.0,035,Scanner,L,1,2019_Sep_01_0940,SST,3.0.7,60.12099893201546,
go,sst_images/Left_Arrow.bmp,None,1,908,None,0,119,119,119,,1,1,0.403442683047615,go,0.15000000000000002,0.908,1.908,035,Scanner,L,1,2019_Sep_01_0940,SST,3.0.7,60.12099893201546,
go,sst_images/Right_Arrow.bmp,None,2,1866,None,0,120,120,120,,2,1,0.4214023580425419,go,0.15000000000000002,1.866,2.866,035,Scanner,L,1,2019_Sep_01_0940,SST,3.0.7,60.12099893201546,
go,sst_images/Left_Arrow.bmp,None,1,1073,None,0,121,121,121,,2,0,0.385295360989403,go,0.15000000000000002,1.073,2.073,035,Scanner,L,1,2019_Sep_01_0940,SST,3.0.7,60.12099893201546,
go,sst_images/Right_Arrow.bmp,None,2,1290,None,0,122,122,122,,2,1,0.4195667539606802,go,0.15000000000000002,1.29,2.29,035,Scanner,L,1,2019_Sep_01_0940,SST,3.0.7,60.12099893201546,
go,sst_images/Right_Arrow.bmp,None,2,708,None,0,123,123,123,,2,1,0.4556199790094979,go,0.15000000000000002,0.708,1.708,035,Scanner,L,1,2019_Sep_01_0940,SST,3.0.7,60.12099893201546,
go,sst_images/Left_Arrow.bmp,None,1,1713,None,0,124,124,124,,1,1,0.4712631439906545,go,0.15000000000000002,1.713,2.713,035,Scanner,L,1,2019_Sep_01_0940,SST,3.0.7,60.12099893201546,
go,sst_images/Left_Arrow.bmp,None,1,744,None,0,125,125,125,,1,1,0.3839197310153395,go,0.15000000000000002,0.744,1.744,035,Scanner,L,1,2019_Sep_01_0940,SST,3.0.7,60.12099893201546,
go,sst_images/Left_Arrow.bmp,None,1,760,None,0,126,126,126,,1,1,0.43060699896886945,go,0.15000000000000002,0.76,1.76,035,Scanner,L,1,2019_Sep_01_0940,SST,3.0.7,60.12099893201546,
stop,sst_images/Left_Arrow.bmp,sst_images/Stop_Arrow.bmp,none,1081,None,0,127,127,127,,None,1,,stop,0.2,1.081,2.0809999999999995,035,Scanner,L,1,2019_Sep_01_0940,SST,3.0.7,60.12099893201546,
go,sst_images/Right_Arrow.bmp,None,2,1285,None,0,128,128,128,,2,1,0.3369551739888266,go,0.2,1.285,2.285,035,Scanner,L,1,2019_Sep_01_0940,SST,3.0.7,60.12099893201546,
go,sst_images/Left_Arrow.bmp,None,1,728,None,0,129,129,129,,1,1,0.40218831499805674,go,0.2,0.728,1.728,035,Scanner,L,1,2019_Sep_01_0940,SST,3.0.7,60.12099893201546,
stop,sst_images/Right_Arrow.bmp,sst_images/Stop_Arrow.bmp,none,745,None,0,130,130,130,,2,0,0.4527734299772419,stop,0.15000000000000002,0.745,1.7922265700227582,035,Scanner,L,1,2019_Sep_01_0940,SST,3.0.7,60.12099893201546,
go,sst_images/Left_Arrow.bmp,None,1,809,None,0,131,131,131,,1,1,0.40373955300310627,go,0.15000000000000002,0.809,1.8090000000000002,035,Scanner,L,1,2019_Sep_01_0940,SST,3.0.7,60.12099893201546,
go,sst_images/Left_Arrow.bmp,None,1,1427,None,0,132,132,132,,1,1,0.38797016703756526,go,0.15000000000000002,1.427,2.427,035,Scanner,L,1,2019_Sep_01_0940,SST,3.0.7,60.12099893201546,
go,sst_images/Right_Arrow.bmp,None,2,947,None,0,133,133,133,,2,1,0.4359057349502109,go,0.15000000000000002,0.947,1.947,035,Scanner,L,1,2019_Sep_01_0940,SST,3.0.7,60.12099893201546,
go,sst_images/Left_Arrow.bmp,None,1,714,None,0,134,134,134,,1,1,0.3859258830198087,go,0.15000000000000002,0.714,1.714,035,Scanner,L,1,2019_Sep_01_0940,SST,3.0.7,60.12099893201546,
stop,sst_images/Left_Arrow.bmp,sst_images/Stop_Arrow.bmp,none,992,None,0,135,135,135,,None,1,,stop,0.2,0.992,1.9919999999999998,035,Scanner,L,1,2019_Sep_01_0940,SST,3.0.7,60.12099893201546,
go,sst_images/Left_Arrow.bmp,None,1,729,None,0,136,136,136,,1,1,0.402135830023326,go,0.2,0.729,1.729,035,Scanner,L,1,2019_Sep_01_0940,SST,3.0.7,60.12099893201546,
go,sst_images/Right_Arrow.bmp,None,2,725,None,0,137,137,137,,2,1,0.41262473800452426,go,0.2,0.725,1.725,035,Scanner,L,1,2019_Sep_01_0940,SST,3.0.7,60.12099893201546,
go,sst_images/Right_Arrow.bmp,None,2,725,None,0,138,138,138,,2,1,0.3942902470007539,go,0.2,0.725,1.725,035,Scanner,L,1,2019_Sep_01_0940,SST,3.0.7,60.12099893201546,
stop,sst_images/Right_Arrow.bmp,sst_images/Stop_Arrow.bmp,none,790,None,0,139,139,139,,2,0,0.4631083040148951,stop,0.15000000000000002,0.79,1.826891695985105,035,Scanner,L,1,2019_Sep_01_0940,SST,3.0.7,60.12099893201546,
go,sst_images/Left_Arrow.bmp,None,1,761,None,0,140,140,140,,1,1,0.5449129840126261,go,0.15000000000000002,0.761,1.7610000000000001,035,Scanner,L,1,2019_Sep_01_0940,SST,3.0.7,60.12099893201546,
go,sst_images/Right_Arrow.bmp,None,2,1000,None,0,141,141,141,,2,1,0.3436232919921167,go,0.15000000000000002,1.0,2.0,035,Scanner,L,1,2019_Sep_01_0940,SST,3.0.7,60.12099893201546,
go,sst_images/Left_Arrow.bmp,None,1,764,None,0,142,142,142,,1,1,0.4432192100211978,go,0.15000000000000002,0.764,1.764,035,Scanner,L,1,2019_Sep_01_0940,SST,3.0.7,60.12099893201546,
go,sst_images/Left_Arrow.bmp,None,1,976,None,0,143,143,143,,2,0,0.36974968103459105,go,0.15000000000000002,0.976,1.976,035,Scanner,L,1,2019_Sep_01_0940,SST,3.0.7,60.12099893201546,
go,sst_images/Right_Arrow.bmp,None,2,1123,None,0,144,144,144,,2,1,0.41248827800154686,go,0.15000000000000002,1.123,2.123,035,Scanner,L,1,2019_Sep_01_0940,SST,3.0.7,60.12099893201546,
go,sst_images/Left_Arrow.bmp,None,1,721,None,0,145,145,145,,1,1,0.3609902319731191,go,0.15000000000000002,0.721,1.721,035,Scanner,L,1,2019_Sep_01_0940,SST,3.0.7,60.12099893201546,
go,sst_images/Right_Arrow.bmp,None,2,807,None,0,146,146,146,,2,1,0.4268734339857474,go,0.15000000000000002,0.807,1.807,035,Scanner,L,1,2019_Sep_01_0940,SST,3.0.7,60.12099893201546,
go,sst_images/Left_Arrow.bmp,None,1,929,None,0,147,147,147,,1,1,0.37614431499969214,go,0.15000000000000002,0.929,1.929,035,Scanner,L,1,2019_Sep_01_0940,SST,3.0.7,60.12099893201546,
go,sst_images/Right_Arrow.bmp,None,2,701,None,0,148,148,148,,2,1,0.395262683974579,go,0.15000000000000002,0.701,1.701,035,Scanner,L,1,2019_Sep_01_0940,SST,3.0.7,60.12099893201546,
stop,sst_images/Right_Arrow.bmp,sst_images/Stop_Arrow.bmp,none,929,None,0,149,149,149,,None,1,,stop,0.2,0.929,1.929,035,Scanner,L,1,2019_Sep_01_0940,SST,3.0.7,60.12099893201546,
go,sst_images/Right_Arrow.bmp,None,2,745,None,0,150,150,150,,2,1,0.42574753699591383,go,0.2,0.745,1.745,035,Scanner,L,1,2019_Sep_01_0940,SST,3.0.7,60.12099893201546,
go,sst_images/Left_Arrow.bmp,None,1,984,None,0,151,151,151,,1,1,0.35871177801163867,go,0.2,0.984,1.984,035,Scanner,L,1,2019_Sep_01_0940,SST,3.0.7,60.12099893201546,
go,sst_images/Right_Arrow.bmp,None,2,729,None,0,152,152,152,,2,1,0.41402980498969555,go,0.2,0.729,1.729,035,Scanner,L,1,2019_Sep_01_0940,SST,3.0.7,60.12099893201546,
go,sst_images/Left_Arrow.bmp,None,1,831,None,0,153,153,153,,1,1,0.3767183059826493,go,0.2,0.831,1.831,035,Scanner,L,1,2019_Sep_01_0940,SST,3.0.7,60.12099893201546,
stop,sst_images/Left_Arrow.bmp,sst_images/Stop_Arrow.bmp,none,1123,None,0,154,154,154,,None,1,,stop,0.25,1.123,2.1229999999999998,035,Scanner,L,1,2019_Sep_01_0940,SST,3.0.7,60.12099893201546,
go,sst_images/Right_Arrow.bmp,None,2,710,None,0,155,155,155,,2,1,0.3924904959858395,go,0.25,0.71,1.71,035,Scanner,L,1,2019_Sep_01_0940,SST,3.0.7,60.12099893201546,
go,sst_images/Left_Arrow.bmp,None,1,716,None,0,156,156,156,,1,1,0.35277591698104516,go,0.25,0.716,1.716,035,Scanner,L,1,2019_Sep_01_0940,SST,3.0.7,60.12099893201546,
go,sst_images/Right_Arrow.bmp,None,2,928,None,0,157,157,157,,2,1,0.3425450900103897,go,0.25,0.928,1.928,035,Scanner,L,1,2019_Sep_01_0940,SST,3.0.7,60.12099893201546,
go,sst_images/Left_Arrow.bmp,None,1,740,None,0,158,158,158,,1,1,0.39478711097035557,go,0.25,0.74,1.74,035,Scanner,L,1,2019_Sep_01_0940,SST,3.0.7,60.12099893201546,
stop,sst_images/Left_Arrow.bmp,sst_images/Stop_Arrow.bmp,none,808,None,0,159,159,159,,1,0,0.5069979620166123,stop,0.2,0.808,1.8510020379833878,035,Scanner,L,1,2019_Sep_01_0940,SST,3.0.7,60.12099893201546,
go,sst_images/Left_Arrow.bmp,None,1,1533,None,0,160,160,160,,1,1,0.3932159200194292,go,0.2,1.533,2.533,035,Scanner,L,1,2019_Sep_01_0940,SST,3.0.7,60.12099893201546,
go,sst_images/Right_Arrow.bmp,None,2,788,None,0,161,161,161,,2,1,0.40928610699484125,go,0.2,0.788,1.788,035,Scanner,L,1,2019_Sep_01_0940,SST,3.0.7,60.12099893201546,
go,sst_images/Left_Arrow.bmp,None,1,782,None,0,162,162,162,,1,1,0.3876347490004264,go,0.2,0.782,1.782,035,Scanner,L,1,2019_Sep_01_0940,SST,3.0.7,60.12099893201546,
go,sst_images/Right_Arrow.bmp,None,2,752,None,0,163,163,163,,2,1,0.36011230695294216,go,0.2,0.752,1.752,035,Scanner,L,1,2019_Sep_01_0940,SST,3.0.7,60.12099893201546,
go,sst_images/Right_Arrow.bmp,None,2,1093,None,0,164,164,164,,2,1,0.6286298839841038,go,0.2,1.093,2.093,035,Scanner,L,1,2019_Sep_01_0940,SST,3.0.7,60.12099893201546,
go,sst_images/Right_Arrow.bmp,None,2,774,None,0,165,165,165,,2,1,0.3572154099820182,go,0.2,0.774,1.774,035,Scanner,L,1,2019_Sep_01_0940,SST,3.0.7,60.12099893201546,
go,sst_images/Left_Arrow.bmp,None,1,765,None,0,166,166,166,,1,1,0.3921238940092735,go,0.2,0.765,1.7650000000000001,035,Scanner,L,1,2019_Sep_01_0940,SST,3.0.7,60.12099893201546,
go,sst_images/Right_Arrow.bmp,None,2,733,None,0,167,167,167,,2,1,0.30863766302354634,go,0.2,0.733,1.733,035,Scanner,L,1,2019_Sep_01_0940,SST,3.0.7,60.12099893201546,
go,sst_images/Right_Arrow.bmp,None,2,752,None,0,168,168,168,,2,1,0.35916789999464527,go,0.2,0.752,1.752,035,Scanner,L,1,2019_Sep_01_0940,SST,3.0.7,60.12099893201546,
stop,sst_images/Left_Arrow.bmp,sst_images/Stop_Arrow.bmp,none,866,None,0,169,169,169,,1,0,0.33482229098444805,stop,0.15000000000000002,0.866,2.031177709015552,035,Scanner,L,1,2019_Sep_01_0940,SST,3.0.7,60.12099893201546,
go,sst_images/Left_Arrow.bmp,None,1,886,None,0,170,170,170,,1,1,0.442779894976411,go,0.15000000000000002,0.886,1.8860000000000001,035,Scanner,L,1,2019_Sep_01_0940,SST,3.0.7,60.12099893201546,
go,sst_images/Right_Arrow.bmp,None,2,1212,None,0,171,171,171,,2,1,0.47530746302800253,go,0.15000000000000002,1.212,2.2119999999999997,035,Scanner,L,1,2019_Sep_01_0940,SST,3.0.7,60.12099893201546,
go,sst_images/Right_Arrow.bmp,None,2,958,None,0,172,172,172,,2,1,0.34112655301578343,go,0.15000000000000002,0.958,1.958,035,Scanner,L,1,2019_Sep_01_0940,SST,3.0.7,60.12099893201546,
go,sst_images/Right_Arrow.bmp,None,2,740,None,0,173,173,173,,2,1,0.3699022229993716,go,0.15000000000000002,0.74,1.74,035,Scanner,L,1,2019_Sep_01_0940,SST,3.0.7,60.12099893201546,
stop,sst_images/Right_Arrow.bmp,sst_images/Stop_Arrow.bmp,none,752,None,0,174,174,174,,2,0,0.33589468797435984,stop,0.10000000000000002,0.752,1.8661053120256403,035,Scanner,L,1,2019_Sep_01_0940,SST,3.0.7,60.12099893201546,
go,sst_images/Left_Arrow.bmp,None,1,850,None,0,175,175,175,,1,1,0.5043665059492923,go,0.10000000000000002,0.85,1.85,035,Scanner,L,1,2019_Sep_01_0940,SST,3.0.7,60.12099893201546,
stop,sst_images/Left_Arrow.bmp,sst_images/Stop_Arrow.bmp,none,774,None,0,176,176,176,,None,1,,stop,0.15000000000000002,0.774,1.7740000000000002,035,Scanner,L,1,2019_Sep_01_0940,SST,3.0.7,60.12099893201546,
go,sst_images/Right_Arrow.bmp,None,2,779,None,0,177,177,177,,2,1,0.4031212859554216,go,0.15000000000000002,0.779,1.779,035,Scanner,L,1,2019_Sep_01_0940,SST,3.0.7,60.12099893201546,
go,sst_images/Left_Arrow.bmp,None,1,918,None,0,178,178,178,,1,1,0.36911220801994205,go,0.15000000000000002,0.918,1.9180000000000001,035,Scanner,L,1,2019_Sep_01_0940,SST,3.0.7,60.12099893201546,
go,sst_images/Right_Arrow.bmp,None,2,902,1062.0,0,179,179,179,,2,1,0.45327311602886766,go,0.15000000000000002,0.902,1.9020000000000001,035,Scanner,L,1,2019_Sep_01_0940,SST,3.0.7,60.12099893201546,
