trial_type,arrow_1,arrow_2,corrAns,jitter,run_end_fixation,trials.thisRepN,trials.thisTrialN,trials.thisN,trials.thisIndex,randomized TrialOrder,key_response.keys,key_response.corr,key_response.rt,trial_t.routineEndVal,ss_delay,iti_duration,SOA,participant,prac_or_scan,handedness,run,date,expName,psychopyVersion,frameRate,
go,sst_images/Left_Arrow.bmp,None,1,1295,None,0,0,0,0,3,1,1,0.8302064540039282,go,0.05,1.295,2.295,036,Scanner,R,1,2019_Aug_25_0934,SST,3.0.7,24.0082376479279,
go,sst_images/Right_Arrow.bmp,None,2,792,None,0,1,1,1,,2,1,0.5449120900011621,go,0.05,0.792,1.792,036,Scanner,R,1,2019_Aug_25_0934,SST,3.0.7,24.0082376479279,
stop,sst_images/Right_Arrow.bmp,sst_images/Stop_Arrow.bmp,none,738,None,0,2,2,2,,None,1,,stop,0.1,0.738,1.738,036,Scanner,R,1,2019_Aug_25_0934,SST,3.0.7,24.0082376479279,
go,sst_images/Right_Arrow.bmp,None,2,750,None,0,3,3,3,,2,1,0.5463265430007596,go,0.1,0.75,1.75,036,Scanner,R,1,2019_Aug_25_0934,SST,3.0.7,24.0082376479279,
go,sst_images/Left_Arrow.bmp,None,1,869,None,0,4,4,4,,1,1,0.5419723680242896,go,0.1,0.869,1.869,036,Scanner,R,1,2019_Aug_25_0934,SST,3.0.7,24.0082376479279,
go,sst_images/Left_Arrow.bmp,None,1,732,None,0,5,5,5,,1,1,0.6261158229899593,go,0.1,0.732,1.732,036,Scanner,R,1,2019_Aug_25_0934,SST,3.0.7,24.0082376479279,
stop,sst_images/Left_Arrow.bmp,sst_images/Stop_Arrow.bmp,none,721,None,0,6,6,6,,None,1,,stop,0.15000000000000002,0.721,1.721,036,Scanner,R,1,2019_Aug_25_0934,SST,3.0.7,24.0082376479279,
go,sst_images/Right_Arrow.bmp,None,2,769,None,0,7,7,7,,2,1,0.5423525350051932,go,0.15000000000000002,0.769,1.7690000000000001,036,Scanner,R,1,2019_Aug_25_0934,SST,3.0.7,24.0082376479279,
go,sst_images/Left_Arrow.bmp,None,1,708,None,0,8,8,8,,1,1,0.5472588340053335,go,0.15000000000000002,0.708,1.708,036,Scanner,R,1,2019_Aug_25_0934,SST,3.0.7,24.0082376479279,
go,sst_images/Right_Arrow.bmp,None,2,838,None,0,9,9,9,,2,1,0.5000007469789125,go,0.15000000000000002,0.838,1.838,036,Scanner,R,1,2019_Aug_25_0934,SST,3.0.7,24.0082376479279,
go,sst_images/Right_Arrow.bmp,None,2,712,None,0,10,10,10,,2,1,0.6268382089911029,go,0.15000000000000002,0.712,1.712,036,Scanner,R,1,2019_Aug_25_0934,SST,3.0.7,24.0082376479279,
go,sst_images/Left_Arrow.bmp,None,1,707,None,0,11,11,11,,1,1,0.5849467419902794,go,0.15000000000000002,0.707,1.7069999999999999,036,Scanner,R,1,2019_Aug_25_0934,SST,3.0.7,24.0082376479279,
stop,sst_images/Left_Arrow.bmp,sst_images/Stop_Arrow.bmp,none,711,None,0,12,12,12,,None,1,,stop,0.2,0.711,1.711,036,Scanner,R,1,2019_Aug_25_0934,SST,3.0.7,24.0082376479279,
go,sst_images/Right_Arrow.bmp,None,2,725,None,0,13,13,13,,2,1,0.5438484860060271,go,0.2,0.725,1.725,036,Scanner,R,1,2019_Aug_25_0934,SST,3.0.7,24.0082376479279,
go,sst_images/Left_Arrow.bmp,None,1,771,None,0,14,14,14,,1,1,0.5467662049923092,go,0.2,0.771,1.771,036,Scanner,R,1,2019_Aug_25_0934,SST,3.0.7,24.0082376479279,
go,sst_images/Left_Arrow.bmp,None,1,830,None,0,15,15,15,,1,1,0.546854907006491,go,0.2,0.83,1.83,036,Scanner,R,1,2019_Aug_25_0934,SST,3.0.7,24.0082376479279,
go,sst_images/Left_Arrow.bmp,None,1,797,None,0,16,16,16,,1,1,0.5461328859964851,go,0.2,0.797,1.7970000000000002,036,Scanner,R,1,2019_Aug_25_0934,SST,3.0.7,24.0082376479279,
go,sst_images/Right_Arrow.bmp,None,2,832,None,0,17,17,17,,2,1,0.6246380079828668,go,0.2,0.832,1.8319999999999999,036,Scanner,R,1,2019_Aug_25_0934,SST,3.0.7,24.0082376479279,
go,sst_images/Left_Arrow.bmp,None,1,762,None,0,18,18,18,,1,1,0.49765217999811284,go,0.2,0.762,1.762,036,Scanner,R,1,2019_Aug_25_0934,SST,3.0.7,24.0082376479279,
stop,sst_images/Right_Arrow.bmp,sst_images/Stop_Arrow.bmp,none,717,None,0,19,19,19,,2,0,0.5299635469855275,stop,0.15000000000000002,0.717,1.6870364530144726,036,Scanner,R,1,2019_Aug_25_0934,SST,3.0.7,24.0082376479279,
go,sst_images/Left_Arrow.bmp,None,1,728,None,0,20,20,20,,1,1,0.587845380010549,go,0.15000000000000002,0.728,1.728,036,Scanner,R,1,2019_Aug_25_0934,SST,3.0.7,24.0082376479279,
go,sst_images/Right_Arrow.bmp,None,2,803,None,0,21,21,21,,2,1,0.7539758720085956,go,0.15000000000000002,0.803,1.803,036,Scanner,R,1,2019_Aug_25_0934,SST,3.0.7,24.0082376479279,
stop,sst_images/Right_Arrow.bmp,sst_images/Stop_Arrow.bmp,none,781,None,0,22,22,22,,None,1,,stop,0.2,0.781,1.781,036,Scanner,R,1,2019_Aug_25_0934,SST,3.0.7,24.0082376479279,
go,sst_images/Left_Arrow.bmp,None,1,961,None,0,23,23,23,,1,1,0.5450825309962966,go,0.2,0.961,1.9609999999999999,036,Scanner,R,1,2019_Aug_25_0934,SST,3.0.7,24.0082376479279,
stop,sst_images/Left_Arrow.bmp,sst_images/Stop_Arrow.bmp,none,772,None,0,24,24,24,,None,1,,stop,0.25,0.772,1.772,036,Scanner,R,1,2019_Aug_25_0934,SST,3.0.7,24.0082376479279,
go,sst_images/Right_Arrow.bmp,None,2,959,None,0,25,25,25,,2,1,0.6294963489926886,go,0.25,0.959,1.959,036,Scanner,R,1,2019_Aug_25_0934,SST,3.0.7,24.0082376479279,
go,sst_images/Left_Arrow.bmp,None,1,1111,None,0,26,26,26,,1,1,0.46568653400754556,go,0.25,1.111,2.1109999999999998,036,Scanner,R,1,2019_Aug_25_0934,SST,3.0.7,24.0082376479279,
go,sst_images/Right_Arrow.bmp,None,2,718,None,0,27,27,27,,2,1,0.501571878005052,go,0.25,0.718,1.718,036,Scanner,R,1,2019_Aug_25_0934,SST,3.0.7,24.0082376479279,
stop,sst_images/Right_Arrow.bmp,sst_images/Stop_Arrow.bmp,none,750,None,0,28,28,28,,2,0,0.5382034079812001,stop,0.2,0.75,1.7617965920188,036,Scanner,R,1,2019_Aug_25_0934,SST,3.0.7,24.0082376479279,
go,sst_images/Right_Arrow.bmp,None,2,768,None,0,29,29,29,,2,1,0.5853256029949989,go,0.2,0.768,1.768,036,Scanner,R,1,2019_Aug_25_0934,SST,3.0.7,24.0082376479279,
go,sst_images/Left_Arrow.bmp,None,1,1426,None,0,30,30,30,,1,1,0.542320128006395,go,0.2,1.426,2.426,036,Scanner,R,1,2019_Aug_25_0934,SST,3.0.7,24.0082376479279,
go,sst_images/Right_Arrow.bmp,None,2,1700,None,0,31,31,31,,2,1,0.7961212849768344,go,0.2,1.7,2.7,036,Scanner,R,1,2019_Aug_25_0934,SST,3.0.7,24.0082376479279,
go,sst_images/Right_Arrow.bmp,None,2,965,None,0,32,32,32,,2,1,0.6300317929999437,go,0.2,0.965,1.9649999999999999,036,Scanner,R,1,2019_Aug_25_0934,SST,3.0.7,24.0082376479279,
go,sst_images/Left_Arrow.bmp,None,1,704,None,0,33,33,33,,1,1,0.6309191159962211,go,0.2,0.704,1.704,036,Scanner,R,1,2019_Aug_25_0934,SST,3.0.7,24.0082376479279,
go,sst_images/Right_Arrow.bmp,None,2,887,None,0,34,34,34,,2,1,0.45697681899764575,go,0.2,0.887,1.887,036,Scanner,R,1,2019_Aug_25_0934,SST,3.0.7,24.0082376479279,
stop,sst_images/Right_Arrow.bmp,sst_images/Stop_Arrow.bmp,none,704,None,0,35,35,35,,2,0,0.5107577870076057,stop,0.15000000000000002,0.704,1.6932422129923943,036,Scanner,R,1,2019_Aug_25_0934,SST,3.0.7,24.0082376479279,
go,sst_images/Left_Arrow.bmp,None,1,1431,None,0,36,36,36,,1,1,0.6294908370182384,go,0.15000000000000002,1.431,2.431,036,Scanner,R,1,2019_Aug_25_0934,SST,3.0.7,24.0082376479279,
go,sst_images/Left_Arrow.bmp,None,1,746,None,0,37,37,37,,1,1,0.5026141260168515,go,0.15000000000000002,0.746,1.746,036,Scanner,R,1,2019_Aug_25_0934,SST,3.0.7,24.0082376479279,
go,sst_images/Right_Arrow.bmp,None,2,709,None,0,38,38,38,,2,1,0.5462169889942743,go,0.15000000000000002,0.709,1.709,036,Scanner,R,1,2019_Aug_25_0934,SST,3.0.7,24.0082376479279,
stop,sst_images/Left_Arrow.bmp,sst_images/Stop_Arrow.bmp,none,894,None,0,39,39,39,,None,1,,stop,0.2,0.894,1.894,036,Scanner,R,1,2019_Aug_25_0934,SST,3.0.7,24.0082376479279,
go,sst_images/Right_Arrow.bmp,None,2,750,None,0,40,40,40,,2,1,0.6293781340064015,go,0.2,0.75,1.75,036,Scanner,R,1,2019_Aug_25_0934,SST,3.0.7,24.0082376479279,
go,sst_images/Left_Arrow.bmp,None,1,1139,None,0,41,41,41,,1,1,0.6308593659778126,go,0.2,1.139,2.1390000000000002,036,Scanner,R,1,2019_Aug_25_0934,SST,3.0.7,24.0082376479279,
go,sst_images/Left_Arrow.bmp,None,1,711,None,0,42,42,42,,2,0,0.4205639149877243,go,0.2,0.711,1.7109999999999999,036,Scanner,R,1,2019_Aug_25_0934,SST,3.0.7,24.0082376479279,
go,sst_images/Right_Arrow.bmp,None,2,738,None,0,43,43,43,,2,1,0.5059917850012425,go,0.2,0.738,1.738,036,Scanner,R,1,2019_Aug_25_0934,SST,3.0.7,24.0082376479279,
go,sst_images/Left_Arrow.bmp,None,1,706,None,0,44,44,44,,1,1,0.4587829679949209,go,0.2,0.706,1.706,036,Scanner,R,1,2019_Aug_25_0934,SST,3.0.7,24.0082376479279,
go,sst_images/Left_Arrow.bmp,None,1,1016,None,0,45,45,45,,2,0,0.37671314700855874,go,0.2,1.016,2.016,036,Scanner,R,1,2019_Aug_25_0934,SST,3.0.7,24.0082376479279,
go,sst_images/Right_Arrow.bmp,None,2,1071,None,0,46,46,46,,2,1,0.5023843480157666,go,0.2,1.071,2.0709999999999997,036,Scanner,R,1,2019_Aug_25_0934,SST,3.0.7,24.0082376479279,
go,sst_images/Right_Arrow.bmp,None,2,913,None,0,47,47,47,,2,1,0.5891090339864604,go,0.2,0.913,1.913,036,Scanner,R,1,2019_Aug_25_0934,SST,3.0.7,24.0082376479279,
go,sst_images/Right_Arrow.bmp,None,2,941,None,0,48,48,48,,2,1,0.5003027389757335,go,0.2,0.941,1.9409999999999998,036,Scanner,R,1,2019_Aug_25_0934,SST,3.0.7,24.0082376479279,
go,sst_images/Left_Arrow.bmp,None,1,1253,None,0,49,49,49,,1,1,0.5477258279861417,go,0.2,1.253,2.253,036,Scanner,R,1,2019_Aug_25_0934,SST,3.0.7,24.0082376479279,
go,sst_images/Left_Arrow.bmp,None,1,1230,None,0,50,50,50,,1,1,0.5841017210041173,go,0.2,1.23,2.23,036,Scanner,R,1,2019_Aug_25_0934,SST,3.0.7,24.0082376479279,
go,sst_images/Left_Arrow.bmp,None,1,870,None,0,51,51,51,,1,1,0.5440843709802721,go,0.2,0.87,1.87,036,Scanner,R,1,2019_Aug_25_0934,SST,3.0.7,24.0082376479279,
go,sst_images/Right_Arrow.bmp,None,2,881,None,0,52,52,52,,2,1,0.663863374007633,go,0.2,0.881,1.881,036,Scanner,R,1,2019_Aug_25_0934,SST,3.0.7,24.0082376479279,
stop,sst_images/Right_Arrow.bmp,sst_images/Stop_Arrow.bmp,none,954,None,0,53,53,53,,2,0,0.4985156909970101,stop,0.15000000000000002,0.954,1.9554843090029899,036,Scanner,R,1,2019_Aug_25_0934,SST,3.0.7,24.0082376479279,
go,sst_images/Right_Arrow.bmp,None,2,784,None,0,54,54,54,,2,1,0.5458497600047849,go,0.15000000000000002,0.784,1.784,036,Scanner,R,1,2019_Aug_25_0934,SST,3.0.7,24.0082376479279,
go,sst_images/Left_Arrow.bmp,None,1,1789,None,0,55,55,55,,1,1,0.6697589120012708,go,0.15000000000000002,1.789,2.7889999999999997,036,Scanner,R,1,2019_Aug_25_0934,SST,3.0.7,24.0082376479279,
go,sst_images/Left_Arrow.bmp,None,1,919,None,0,56,56,56,,1,1,0.5042059230036102,go,0.15000000000000002,0.919,1.919,036,Scanner,R,1,2019_Aug_25_0934,SST,3.0.7,24.0082376479279,
go,sst_images/Left_Arrow.bmp,None,1,1155,None,0,57,57,57,,1,1,0.5027854249929078,go,0.15000000000000002,1.155,2.1550000000000002,036,Scanner,R,1,2019_Aug_25_0934,SST,3.0.7,24.0082376479279,
go,sst_images/Right_Arrow.bmp,None,2,716,None,0,58,58,58,,2,1,0.5452563329890836,go,0.15000000000000002,0.716,1.716,036,Scanner,R,1,2019_Aug_25_0934,SST,3.0.7,24.0082376479279,
go,sst_images/Left_Arrow.bmp,None,1,791,None,0,59,59,59,,1,1,0.6704202300170437,go,0.15000000000000002,0.791,1.791,036,Scanner,R,1,2019_Aug_25_0934,SST,3.0.7,24.0082376479279,
go,sst_images/Left_Arrow.bmp,None,1,786,None,0,60,60,60,,1,1,0.6266228789754678,go,0.15000000000000002,0.786,1.786,036,Scanner,R,1,2019_Aug_25_0934,SST,3.0.7,24.0082376479279,
go,sst_images/Right_Arrow.bmp,None,2,987,None,0,61,61,61,,2,1,0.5445161760144401,go,0.15000000000000002,0.987,1.987,036,Scanner,R,1,2019_Aug_25_0934,SST,3.0.7,24.0082376479279,
stop,sst_images/Left_Arrow.bmp,sst_images/Stop_Arrow.bmp,none,1076,None,0,62,62,62,,None,1,,stop,0.2,1.076,2.0759999999999996,036,Scanner,R,1,2019_Aug_25_0934,SST,3.0.7,24.0082376479279,
go,sst_images/Right_Arrow.bmp,None,2,957,None,0,63,63,63,,2,1,0.6298964319867082,go,0.2,0.957,1.9569999999999999,036,Scanner,R,1,2019_Aug_25_0934,SST,3.0.7,24.0082376479279,
go,sst_images/Left_Arrow.bmp,None,1,1855,None,0,64,64,64,,1,1,0.7180162479926366,go,0.2,1.855,2.855,036,Scanner,R,1,2019_Aug_25_0934,SST,3.0.7,24.0082376479279,
go,sst_images/Right_Arrow.bmp,None,2,825,None,0,65,65,65,,2,1,0.5061296639905777,go,0.2,0.825,1.825,036,Scanner,R,1,2019_Aug_25_0934,SST,3.0.7,24.0082376479279,
go,sst_images/Left_Arrow.bmp,None,1,979,None,0,66,66,66,,1,1,0.5447456889960449,go,0.2,0.979,1.979,036,Scanner,R,1,2019_Aug_25_0934,SST,3.0.7,24.0082376479279,
go,sst_images/Right_Arrow.bmp,None,2,985,None,0,67,67,67,,2,1,0.5894987839856185,go,0.2,0.985,1.9849999999999999,036,Scanner,R,1,2019_Aug_25_0934,SST,3.0.7,24.0082376479279,
go,sst_images/Right_Arrow.bmp,None,2,1699,None,0,68,68,68,,2,1,0.5862103620020207,go,0.2,1.699,2.699,036,Scanner,R,1,2019_Aug_25_0934,SST,3.0.7,24.0082376479279,
go,sst_images/Left_Arrow.bmp,None,1,894,None,0,69,69,69,,1,1,0.5850569229805842,go,0.2,0.894,1.8940000000000001,036,Scanner,R,1,2019_Aug_25_0934,SST,3.0.7,24.0082376479279,
go,sst_images/Right_Arrow.bmp,None,2,730,None,0,70,70,70,,2,1,0.5064298890065402,go,0.2,0.73,1.73,036,Scanner,R,1,2019_Aug_25_0934,SST,3.0.7,24.0082376479279,
go,sst_images/Left_Arrow.bmp,None,1,798,None,0,71,71,71,,1,1,0.828302015986992,go,0.2,0.798,1.798,036,Scanner,R,1,2019_Aug_25_0934,SST,3.0.7,24.0082376479279,
stop,sst_images/Right_Arrow.bmp,sst_images/Stop_Arrow.bmp,none,790,None,0,72,72,72,,None,1,,stop,0.25,0.79,1.79,036,Scanner,R,1,2019_Aug_25_0934,SST,3.0.7,24.0082376479279,
go,sst_images/Right_Arrow.bmp,None,2,795,None,0,73,73,73,,2,1,0.5856293289980385,go,0.25,0.795,1.795,036,Scanner,R,1,2019_Aug_25_0934,SST,3.0.7,24.0082376479279,
go,sst_images/Left_Arrow.bmp,None,1,778,None,0,74,74,74,,1,1,0.589399468008196,go,0.25,0.778,1.778,036,Scanner,R,1,2019_Aug_25_0934,SST,3.0.7,24.0082376479279,
stop,sst_images/Right_Arrow.bmp,sst_images/Stop_Arrow.bmp,none,833,None,0,75,75,75,,2,0,0.5287945059826598,stop,0.2,0.833,1.8542054940173402,036,Scanner,R,1,2019_Aug_25_0934,SST,3.0.7,24.0082376479279,
go,sst_images/Right_Arrow.bmp,None,2,984,None,0,76,76,76,,None,0,,go,0.2,0.984,1.984,036,Scanner,R,1,2019_Aug_25_0934,SST,3.0.7,24.0082376479279,
go,sst_images/Right_Arrow.bmp,None,2,1092,None,0,77,77,77,,2,1,0.5883263659779914,go,0.2,1.092,2.092,036,Scanner,R,1,2019_Aug_25_0934,SST,3.0.7,24.0082376479279,
go,sst_images/Left_Arrow.bmp,None,1,750,None,0,78,78,78,,1,1,0.5869911170157138,go,0.2,0.75,1.75,036,Scanner,R,1,2019_Aug_25_0934,SST,3.0.7,24.0082376479279,
go,sst_images/Left_Arrow.bmp,None,1,894,None,0,79,79,79,,1,1,0.5024404899741057,go,0.2,0.894,1.8940000000000001,036,Scanner,R,1,2019_Aug_25_0934,SST,3.0.7,24.0082376479279,
go,sst_images/Right_Arrow.bmp,None,2,724,None,0,80,80,80,,2,1,0.5038786049990449,go,0.2,0.724,1.724,036,Scanner,R,1,2019_Aug_25_0934,SST,3.0.7,24.0082376479279,
go,sst_images/Right_Arrow.bmp,None,2,788,None,0,81,81,81,,2,1,0.6273607309849467,go,0.2,0.788,1.788,036,Scanner,R,1,2019_Aug_25_0934,SST,3.0.7,24.0082376479279,
stop,sst_images/Left_Arrow.bmp,sst_images/Stop_Arrow.bmp,none,857,None,0,82,82,82,,None,1,,stop,0.25,0.857,1.857,036,Scanner,R,1,2019_Aug_25_0934,SST,3.0.7,24.0082376479279,
go,sst_images/Right_Arrow.bmp,None,2,909,None,0,83,83,83,,2,1,0.5882360590039752,go,0.25,0.909,1.909,036,Scanner,R,1,2019_Aug_25_0934,SST,3.0.7,24.0082376479279,
go,sst_images/Left_Arrow.bmp,None,1,1176,None,0,84,84,84,,1,1,0.8323388469871134,go,0.25,1.176,2.176,036,Scanner,R,1,2019_Aug_25_0934,SST,3.0.7,24.0082376479279,
go,sst_images/Left_Arrow.bmp,None,1,811,None,0,85,85,85,,1,1,0.589285067981109,go,0.25,0.811,1.811,036,Scanner,R,1,2019_Aug_25_0934,SST,3.0.7,24.0082376479279,
stop,sst_images/Right_Arrow.bmp,sst_images/Stop_Arrow.bmp,none,1155,None,0,86,86,86,,None,1,,stop,0.3,1.155,2.155,036,Scanner,R,1,2019_Aug_25_0934,SST,3.0.7,24.0082376479279,
go,sst_images/Right_Arrow.bmp,None,2,717,None,0,87,87,87,,2,1,0.627263735019369,go,0.3,0.717,1.717,036,Scanner,R,1,2019_Aug_25_0934,SST,3.0.7,24.0082376479279,
go,sst_images/Left_Arrow.bmp,None,1,1064,None,0,88,88,88,,1,1,0.7564910850196611,go,0.3,1.064,2.064,036,Scanner,R,1,2019_Aug_25_0934,SST,3.0.7,24.0082376479279,
go,sst_images/Right_Arrow.bmp,None,2,954,None,0,89,89,89,,2,1,0.5446425240079407,go,0.3,0.954,1.954,036,Scanner,R,1,2019_Aug_25_0934,SST,3.0.7,24.0082376479279,
stop,sst_images/Right_Arrow.bmp,sst_images/Stop_Arrow.bmp,none,946,None,0,90,90,90,,None,1,,stop,0.35,0.946,1.946,036,Scanner,R,1,2019_Aug_25_0934,SST,3.0.7,24.0082376479279,
go,sst_images/Left_Arrow.bmp,None,1,1146,None,0,91,91,91,,1,1,0.5853408830007538,go,0.35,1.146,2.146,036,Scanner,R,1,2019_Aug_25_0934,SST,3.0.7,24.0082376479279,
go,sst_images/Right_Arrow.bmp,None,2,843,None,0,92,92,92,,2,1,0.5861963320057839,go,0.35,0.843,1.843,036,Scanner,R,1,2019_Aug_25_0934,SST,3.0.7,24.0082376479279,
go,sst_images/Left_Arrow.bmp,None,1,1717,None,0,93,93,93,,1,1,0.628708253003424,go,0.35,1.717,2.717,036,Scanner,R,1,2019_Aug_25_0934,SST,3.0.7,24.0082376479279,
go,sst_images/Left_Arrow.bmp,None,1,745,None,0,94,94,94,,1,1,0.7531901499896776,go,0.35,0.745,1.745,036,Scanner,R,1,2019_Aug_25_0934,SST,3.0.7,24.0082376479279,
go,sst_images/Left_Arrow.bmp,None,1,1658,None,0,95,95,95,,1,1,0.8770010159933008,go,0.35,1.658,2.658,036,Scanner,R,1,2019_Aug_25_0934,SST,3.0.7,24.0082376479279,
go,sst_images/Right_Arrow.bmp,None,2,704,None,0,96,96,96,,2,1,0.5426761499838904,go,0.35,0.704,1.704,036,Scanner,R,1,2019_Aug_25_0934,SST,3.0.7,24.0082376479279,
stop,sst_images/Left_Arrow.bmp,sst_images/Stop_Arrow.bmp,none,881,None,0,97,97,97,,1,0,0.5666384600044694,stop,0.3,0.881,1.9643615399955305,036,Scanner,R,1,2019_Aug_25_0934,SST,3.0.7,24.0082376479279,
go,sst_images/Left_Arrow.bmp,None,1,848,None,0,98,98,98,,1,1,0.5050129310111515,go,0.3,0.848,1.8479999999999999,036,Scanner,R,1,2019_Aug_25_0934,SST,3.0.7,24.0082376479279,
go,sst_images/Right_Arrow.bmp,None,2,730,None,0,99,99,99,,2,1,0.4558841780235525,go,0.3,0.73,1.73,036,Scanner,R,1,2019_Aug_25_0934,SST,3.0.7,24.0082376479279,
go,sst_images/Right_Arrow.bmp,None,2,1039,None,0,100,100,100,,2,1,0.5397976850217674,go,0.3,1.039,2.0389999999999997,036,Scanner,R,1,2019_Aug_25_0934,SST,3.0.7,24.0082376479279,
go,sst_images/Left_Arrow.bmp,None,1,1855,None,0,101,101,101,,1,1,0.754605599999195,go,0.3,1.855,2.855,036,Scanner,R,1,2019_Aug_25_0934,SST,3.0.7,24.0082376479279,
stop,sst_images/Left_Arrow.bmp,sst_images/Stop_Arrow.bmp,none,772,None,0,102,102,102,,1,0,0.49767873200471513,stop,0.25,0.772,1.874321267995285,036,Scanner,R,1,2019_Aug_25_0934,SST,3.0.7,24.0082376479279,
go,sst_images/Right_Arrow.bmp,None,2,1076,None,0,103,103,103,,2,1,0.7129182159842458,go,0.25,1.076,2.076,036,Scanner,R,1,2019_Aug_25_0934,SST,3.0.7,24.0082376479279,
go,sst_images/Right_Arrow.bmp,None,2,857,None,0,104,104,104,,2,1,0.5041675630200189,go,0.25,0.857,1.857,036,Scanner,R,1,2019_Aug_25_0934,SST,3.0.7,24.0082376479279,
go,sst_images/Left_Arrow.bmp,None,1,815,None,0,105,105,105,,1,1,0.5038580629916396,go,0.25,0.815,1.815,036,Scanner,R,1,2019_Aug_25_0934,SST,3.0.7,24.0082376479279,
stop,sst_images/Right_Arrow.bmp,sst_images/Stop_Arrow.bmp,none,1053,None,0,106,106,106,,2,0,0.4815494509821292,stop,0.2,1.053,2.1214505490178706,036,Scanner,R,1,2019_Aug_25_0934,SST,3.0.7,24.0082376479279,
go,sst_images/Left_Arrow.bmp,None,1,778,None,0,107,107,107,,1,1,0.6700352740008384,go,0.2,0.778,1.778,036,Scanner,R,1,2019_Aug_25_0934,SST,3.0.7,24.0082376479279,
go,sst_images/Right_Arrow.bmp,None,2,1337,None,0,108,108,108,,2,1,0.6702682810137048,go,0.2,1.337,2.3369999999999997,036,Scanner,R,1,2019_Aug_25_0934,SST,3.0.7,24.0082376479279,
go,sst_images/Right_Arrow.bmp,None,2,758,None,0,109,109,109,,2,1,0.752495713008102,go,0.2,0.758,1.758,036,Scanner,R,1,2019_Aug_25_0934,SST,3.0.7,24.0082376479279,
go,sst_images/Left_Arrow.bmp,None,1,978,None,0,110,110,110,,1,1,0.9178971350193024,go,0.2,0.978,1.978,036,Scanner,R,1,2019_Aug_25_0934,SST,3.0.7,24.0082376479279,
stop,sst_images/Left_Arrow.bmp,sst_images/Stop_Arrow.bmp,none,728,None,0,111,111,111,,None,1,,stop,0.25,0.728,1.728,036,Scanner,R,1,2019_Aug_25_0934,SST,3.0.7,24.0082376479279,
go,sst_images/Right_Arrow.bmp,None,2,895,None,0,112,112,112,,2,1,0.6297415639855899,go,0.25,0.895,1.895,036,Scanner,R,1,2019_Aug_25_0934,SST,3.0.7,24.0082376479279,
go,sst_images/Left_Arrow.bmp,None,1,869,None,0,113,113,113,,1,1,0.5835737049928866,go,0.25,0.869,1.869,036,Scanner,R,1,2019_Aug_25_0934,SST,3.0.7,24.0082376479279,
stop,sst_images/Left_Arrow.bmp,sst_images/Stop_Arrow.bmp,none,736,None,0,114,114,114,,None,1,,stop,0.3,0.736,1.736,036,Scanner,R,1,2019_Aug_25_0934,SST,3.0.7,24.0082376479279,
go,sst_images/Right_Arrow.bmp,None,2,1150,None,0,115,115,115,,2,1,0.5460459580062889,go,0.3,1.15,2.15,036,Scanner,R,1,2019_Aug_25_0934,SST,3.0.7,24.0082376479279,
stop,sst_images/Right_Arrow.bmp,sst_images/Stop_Arrow.bmp,none,830,None,0,116,116,116,,2,0,0.4888042930106167,stop,0.25,0.83,1.9411957069893835,036,Scanner,R,1,2019_Aug_25_0934,SST,3.0.7,24.0082376479279,
go,sst_images/Left_Arrow.bmp,None,1,837,None,0,117,117,117,,1,1,0.6713800690195058,go,0.25,0.837,1.837,036,Scanner,R,1,2019_Aug_25_0934,SST,3.0.7,24.0082376479279,
go,sst_images/Right_Arrow.bmp,None,2,851,None,0,118,118,118,,2,1,0.7133222029951867,go,0.25,0.851,1.851,036,Scanner,R,1,2019_Aug_25_0934,SST,3.0.7,24.0082376479279,
go,sst_images/Left_Arrow.bmp,None,1,1031,None,0,119,119,119,,1,1,0.8725948290084489,go,0.25,1.031,2.0309999999999997,036,Scanner,R,1,2019_Aug_25_0934,SST,3.0.7,24.0082376479279,
stop,sst_images/Left_Arrow.bmp,sst_images/Stop_Arrow.bmp,none,735,None,0,120,120,120,,1,0,0.5448514839808922,stop,0.2,0.735,1.7401485160191077,036,Scanner,R,1,2019_Aug_25_0934,SST,3.0.7,24.0082376479279,
go,sst_images/Right_Arrow.bmp,None,2,1006,None,0,121,121,121,,2,1,0.6694744410051499,go,0.2,1.006,2.0060000000000002,036,Scanner,R,1,2019_Aug_25_0934,SST,3.0.7,24.0082376479279,
go,sst_images/Left_Arrow.bmp,None,1,953,None,0,122,122,122,,None,0,,go,0.2,0.953,1.9529999999999998,036,Scanner,R,1,2019_Aug_25_0934,SST,3.0.7,24.0082376479279,
stop,sst_images/Right_Arrow.bmp,sst_images/Stop_Arrow.bmp,none,887,None,0,123,123,123,,None,1,,stop,0.25,0.887,1.887,036,Scanner,R,1,2019_Aug_25_0934,SST,3.0.7,24.0082376479279,
go,sst_images/Right_Arrow.bmp,None,2,766,None,0,124,124,124,,2,1,0.7126024559838697,go,0.25,0.766,1.766,036,Scanner,R,1,2019_Aug_25_0934,SST,3.0.7,24.0082376479279,
go,sst_images/Left_Arrow.bmp,None,1,978,None,0,125,125,125,,1,1,0.6710421770112589,go,0.25,0.978,1.978,036,Scanner,R,1,2019_Aug_25_0934,SST,3.0.7,24.0082376479279,
go,sst_images/Right_Arrow.bmp,None,2,734,None,0,126,126,126,,2,1,0.5471626700018533,go,0.25,0.734,1.734,036,Scanner,R,1,2019_Aug_25_0934,SST,3.0.7,24.0082376479279,
go,sst_images/Right_Arrow.bmp,None,2,833,None,0,127,127,127,,2,1,0.7567979680025019,go,0.25,0.833,1.833,036,Scanner,R,1,2019_Aug_25_0934,SST,3.0.7,24.0082376479279,
go,sst_images/Left_Arrow.bmp,None,1,876,None,0,128,128,128,,1,1,0.5308665650081821,go,0.25,0.876,1.876,036,Scanner,R,1,2019_Aug_25_0934,SST,3.0.7,24.0082376479279,
go,sst_images/Left_Arrow.bmp,None,1,1001,None,0,129,129,129,,2,0,0.5043892769899685,go,0.25,1.001,2.001,036,Scanner,R,1,2019_Aug_25_0934,SST,3.0.7,24.0082376479279,
go,sst_images/Left_Arrow.bmp,None,1,795,None,0,130,130,130,,1,1,0.5859728500072379,go,0.25,0.795,1.795,036,Scanner,R,1,2019_Aug_25_0934,SST,3.0.7,24.0082376479279,
stop,sst_images/Right_Arrow.bmp,sst_images/Stop_Arrow.bmp,none,790,None,0,131,131,131,,None,1,,stop,0.3,0.79,1.79,036,Scanner,R,1,2019_Aug_25_0934,SST,3.0.7,24.0082376479279,
go,sst_images/Right_Arrow.bmp,None,2,717,None,0,132,132,132,,2,1,0.7127653239876963,go,0.3,0.717,1.717,036,Scanner,R,1,2019_Aug_25_0934,SST,3.0.7,24.0082376479279,
go,sst_images/Left_Arrow.bmp,None,1,767,None,0,133,133,133,,1,1,0.8382914050016552,go,0.3,0.767,1.767,036,Scanner,R,1,2019_Aug_25_0934,SST,3.0.7,24.0082376479279,
go,sst_images/Left_Arrow.bmp,None,1,785,None,0,134,134,134,,1,1,0.9252928950008936,go,0.3,0.785,1.7850000000000001,036,Scanner,R,1,2019_Aug_25_0934,SST,3.0.7,24.0082376479279,
go,sst_images/Left_Arrow.bmp,None,1,1589,None,0,135,135,135,,1,1,0.7532207960030064,go,0.3,1.589,2.589,036,Scanner,R,1,2019_Aug_25_0934,SST,3.0.7,24.0082376479279,
go,sst_images/Right_Arrow.bmp,None,2,741,None,0,136,136,136,,2,1,0.7499331879953388,go,0.3,0.741,1.741,036,Scanner,R,1,2019_Aug_25_0934,SST,3.0.7,24.0082376479279,
stop,sst_images/Left_Arrow.bmp,sst_images/Stop_Arrow.bmp,none,809,None,0,137,137,137,,None,1,,stop,0.35,0.809,1.8090000000000002,036,Scanner,R,1,2019_Aug_25_0934,SST,3.0.7,24.0082376479279,
go,sst_images/Left_Arrow.bmp,None,1,708,None,0,138,138,138,,1,1,0.6709478239936288,go,0.35,0.708,1.708,036,Scanner,R,1,2019_Aug_25_0934,SST,3.0.7,24.0082376479279,
go,sst_images/Left_Arrow.bmp,None,1,914,None,0,139,139,139,,1,1,0.6712358330260031,go,0.35,0.914,1.9140000000000001,036,Scanner,R,1,2019_Aug_25_0934,SST,3.0.7,24.0082376479279,
go,sst_images/Right_Arrow.bmp,None,2,722,None,0,140,140,140,,2,1,0.6696594069944695,go,0.35,0.722,1.722,036,Scanner,R,1,2019_Aug_25_0934,SST,3.0.7,24.0082376479279,
go,sst_images/Right_Arrow.bmp,None,2,750,None,0,141,141,141,,2,1,0.8388454990054015,go,0.35,0.75,1.75,036,Scanner,R,1,2019_Aug_25_0934,SST,3.0.7,24.0082376479279,
go,sst_images/Left_Arrow.bmp,None,1,1433,None,0,142,142,142,,None,0,,go,0.35,1.433,2.433,036,Scanner,R,1,2019_Aug_25_0934,SST,3.0.7,24.0082376479279,
go,sst_images/Right_Arrow.bmp,None,2,712,None,0,143,143,143,,2,1,0.8801651189860422,go,0.35,0.712,1.712,036,Scanner,R,1,2019_Aug_25_0934,SST,3.0.7,24.0082376479279,
go,sst_images/Left_Arrow.bmp,None,1,759,None,0,144,144,144,,1,1,0.713441416999558,go,0.35,0.759,1.759,036,Scanner,R,1,2019_Aug_25_0934,SST,3.0.7,24.0082376479279,
go,sst_images/Left_Arrow.bmp,None,1,1102,None,0,145,145,145,,1,1,0.5895540040219203,go,0.35,1.102,2.1020000000000003,036,Scanner,R,1,2019_Aug_25_0934,SST,3.0.7,24.0082376479279,
go,sst_images/Right_Arrow.bmp,None,2,721,None,0,146,146,146,,2,1,0.5033066489850171,go,0.35,0.721,1.721,036,Scanner,R,1,2019_Aug_25_0934,SST,3.0.7,24.0082376479279,
go,sst_images/Left_Arrow.bmp,None,1,738,None,0,147,147,147,,1,1,0.5467618610127829,go,0.35,0.738,1.738,036,Scanner,R,1,2019_Aug_25_0934,SST,3.0.7,24.0082376479279,
go,sst_images/Right_Arrow.bmp,None,2,1051,None,0,148,148,148,,2,1,0.464029972004937,go,0.35,1.051,2.051,036,Scanner,R,1,2019_Aug_25_0934,SST,3.0.7,24.0082376479279,
go,sst_images/Left_Arrow.bmp,None,1,1399,None,0,149,149,149,,1,1,0.546489073021803,go,0.35,1.399,2.399,036,Scanner,R,1,2019_Aug_25_0934,SST,3.0.7,24.0082376479279,
go,sst_images/Right_Arrow.bmp,None,2,820,None,0,150,150,150,,2,1,0.5455721550097223,go,0.35,0.82,1.8199999999999998,036,Scanner,R,1,2019_Aug_25_0934,SST,3.0.7,24.0082376479279,
go,sst_images/Right_Arrow.bmp,None,2,1121,None,0,151,151,151,,2,1,0.6297237900143955,go,0.35,1.121,2.121,036,Scanner,R,1,2019_Aug_25_0934,SST,3.0.7,24.0082376479279,
go,sst_images/Left_Arrow.bmp,None,1,909,None,0,152,152,152,,1,1,0.4599003529874608,go,0.35,0.909,1.909,036,Scanner,R,1,2019_Aug_25_0934,SST,3.0.7,24.0082376479279,
go,sst_images/Right_Arrow.bmp,None,2,1041,None,0,153,153,153,,2,1,0.5056291109940503,go,0.35,1.041,2.041,036,Scanner,R,1,2019_Aug_25_0934,SST,3.0.7,24.0082376479279,
go,sst_images/Left_Arrow.bmp,None,1,900,None,0,154,154,154,,1,1,0.6238177669874858,go,0.35,0.9,1.9,036,Scanner,R,1,2019_Aug_25_0934,SST,3.0.7,24.0082376479279,
go,sst_images/Right_Arrow.bmp,None,2,825,None,0,155,155,155,,2,1,0.5476656919927336,go,0.35,0.825,1.825,036,Scanner,R,1,2019_Aug_25_0934,SST,3.0.7,24.0082376479279,
stop,sst_images/Left_Arrow.bmp,sst_images/Stop_Arrow.bmp,none,1003,None,0,156,156,156,,1,0,0.4633951570140198,stop,0.3,1.003,2.18960484298598,036,Scanner,R,1,2019_Aug_25_0934,SST,3.0.7,24.0082376479279,
go,sst_images/Left_Arrow.bmp,None,1,1309,None,0,157,157,157,,1,1,0.6312459459877573,go,0.3,1.309,2.309,036,Scanner,R,1,2019_Aug_25_0934,SST,3.0.7,24.0082376479279,
go,sst_images/Right_Arrow.bmp,None,2,782,None,0,158,158,158,,2,1,0.6710557419864926,go,0.3,0.782,1.782,036,Scanner,R,1,2019_Aug_25_0934,SST,3.0.7,24.0082376479279,
stop,sst_images/Left_Arrow.bmp,sst_images/Stop_Arrow.bmp,none,1121,None,0,159,159,159,,1,0,0.5699155080073979,stop,0.25,1.121,2.151084491992602,036,Scanner,R,1,2019_Aug_25_0934,SST,3.0.7,24.0082376479279,
go,sst_images/Left_Arrow.bmp,None,1,877,None,0,160,160,160,,1,1,0.5444602210191078,go,0.25,0.877,1.877,036,Scanner,R,1,2019_Aug_25_0934,SST,3.0.7,24.0082376479279,
go,sst_images/Left_Arrow.bmp,None,1,922,None,0,161,161,161,,1,1,0.629689919995144,go,0.25,0.922,1.9220000000000002,036,Scanner,R,1,2019_Aug_25_0934,SST,3.0.7,24.0082376479279,
go,sst_images/Right_Arrow.bmp,None,2,1017,None,0,162,162,162,,None,0,,go,0.25,1.017,2.017,036,Scanner,R,1,2019_Aug_25_0934,SST,3.0.7,24.0082376479279,
go,sst_images/Left_Arrow.bmp,None,1,759,None,0,163,163,163,,1,1,0.6287948199897073,go,0.25,0.759,1.759,036,Scanner,R,1,2019_Aug_25_0934,SST,3.0.7,24.0082376479279,
go,sst_images/Right_Arrow.bmp,None,2,775,None,0,164,164,164,,2,1,0.7956444839946926,go,0.25,0.775,1.775,036,Scanner,R,1,2019_Aug_25_0934,SST,3.0.7,24.0082376479279,
go,sst_images/Right_Arrow.bmp,None,2,1003,None,0,165,165,165,,2,1,0.5846306210150942,go,0.25,1.003,2.003,036,Scanner,R,1,2019_Aug_25_0934,SST,3.0.7,24.0082376479279,
go,sst_images/Right_Arrow.bmp,None,2,925,None,0,166,166,166,,2,1,0.6269828799995594,go,0.25,0.925,1.925,036,Scanner,R,1,2019_Aug_25_0934,SST,3.0.7,24.0082376479279,
go,sst_images/Left_Arrow.bmp,None,1,728,None,0,167,167,167,,1,1,0.5479263570159674,go,0.25,0.728,1.728,036,Scanner,R,1,2019_Aug_25_0934,SST,3.0.7,24.0082376479279,
go,sst_images/Right_Arrow.bmp,None,2,1170,None,0,168,168,168,,2,1,0.5061970470123924,go,0.25,1.17,2.17,036,Scanner,R,1,2019_Aug_25_0934,SST,3.0.7,24.0082376479279,
go,sst_images/Right_Arrow.bmp,None,2,1099,None,0,169,169,169,,2,1,0.5454092159925494,go,0.25,1.099,2.099,036,Scanner,R,1,2019_Aug_25_0934,SST,3.0.7,24.0082376479279,
go,sst_images/Left_Arrow.bmp,None,1,756,None,0,170,170,170,,1,1,0.5512726689921692,go,0.25,0.756,1.756,036,Scanner,R,1,2019_Aug_25_0934,SST,3.0.7,24.0082376479279,
go,sst_images/Right_Arrow.bmp,None,2,721,None,0,171,171,171,,2,1,0.6223718429973815,go,0.25,0.721,1.721,036,Scanner,R,1,2019_Aug_25_0934,SST,3.0.7,24.0082376479279,
go,sst_images/Right_Arrow.bmp,None,2,957,None,0,172,172,172,,2,1,0.5463978569896426,go,0.25,0.957,1.9569999999999999,036,Scanner,R,1,2019_Aug_25_0934,SST,3.0.7,24.0082376479279,
go,sst_images/Right_Arrow.bmp,None,2,806,None,0,173,173,173,,2,1,0.6719527929963078,go,0.25,0.806,1.806,036,Scanner,R,1,2019_Aug_25_0934,SST,3.0.7,24.0082376479279,
go,sst_images/Left_Arrow.bmp,None,1,951,None,0,174,174,174,,1,1,0.6723103300028015,go,0.25,0.951,1.951,036,Scanner,R,1,2019_Aug_25_0934,SST,3.0.7,24.0082376479279,
go,sst_images/Right_Arrow.bmp,None,2,808,None,0,175,175,175,,2,1,0.6644611090014223,go,0.25,0.808,1.808,036,Scanner,R,1,2019_Aug_25_0934,SST,3.0.7,24.0082376479279,
go,sst_images/Left_Arrow.bmp,None,1,720,None,0,176,176,176,,1,1,0.5840747439942788,go,0.25,0.72,1.72,036,Scanner,R,1,2019_Aug_25_0934,SST,3.0.7,24.0082376479279,
stop,sst_images/Right_Arrow.bmp,sst_images/Stop_Arrow.bmp,none,815,None,0,177,177,177,,2,0,0.49560230801580474,stop,0.2,0.815,1.8693976919841953,036,Scanner,R,1,2019_Aug_25_0934,SST,3.0.7,24.0082376479279,
go,sst_images/Right_Arrow.bmp,None,2,736,None,0,178,178,178,,2,1,0.46138760101166554,go,0.2,0.736,1.736,036,Scanner,R,1,2019_Aug_25_0934,SST,3.0.7,24.0082376479279,
stop,sst_images/Left_Arrow.bmp,sst_images/Stop_Arrow.bmp,none,707,1421.0,0,179,179,179,,1,0,0.3781638310174458,stop,0.15000000000000002,0.707,1.828836168982554,036,Scanner,R,1,2019_Aug_25_0934,SST,3.0.7,24.0082376479279,
