trial_type,arrow_1,arrow_2,corrAns,jitter,run_end_fixation,trials.thisRepN,trials.thisTrialN,trials.thisN,trials.thisIndex,randomized TrialOrder,key_response.keys,key_response.corr,key_response.rt,trial_t.routineEndVal,ss_delay,iti_duration,SOA,participant,prac_or_scan,handedness,run,date,expName,psychopyVersion,frameRate,
go,sst_images/Left_Arrow.bmp,None,1,819,None,0,0,0,0,3,1,1,0.6891896490124054,go,0.05,0.819,1.819,036,Scanner,R,2,2019_Aug_25_0940,SST,3.0.7,24.003812957317173,
go,sst_images/Right_Arrow.bmp,None,2,731,None,0,1,1,1,,2,1,0.4415840190195013,go,0.05,0.731,1.7309999999999999,036,Scanner,R,2,2019_Aug_25_0940,SST,3.0.7,24.003812957317173,
go,sst_images/Right_Arrow.bmp,None,2,2000,None,0,2,2,2,,2,1,0.46034703799523413,go,0.05,2.0,3.0,036,Scanner,R,2,2019_Aug_25_0940,SST,3.0.7,24.003812957317173,
go,sst_images/Left_Arrow.bmp,None,1,848,None,0,3,3,3,,1,1,0.4600300519960001,go,0.05,0.848,1.8479999999999999,036,Scanner,R,2,2019_Aug_25_0940,SST,3.0.7,24.003812957317173,
go,sst_images/Left_Arrow.bmp,None,1,1002,None,0,4,4,4,,1,1,0.5891865699959453,go,0.05,1.002,2.002,036,Scanner,R,2,2019_Aug_25_0940,SST,3.0.7,24.003812957317173,
go,sst_images/Right_Arrow.bmp,None,2,1678,None,0,5,5,5,,2,1,0.4642528929980472,go,0.05,1.678,2.678,036,Scanner,R,2,2019_Aug_25_0940,SST,3.0.7,24.003812957317173,
go,sst_images/Left_Arrow.bmp,None,1,701,None,0,6,6,6,,1,1,0.42016450202208944,go,0.05,0.701,1.701,036,Scanner,R,2,2019_Aug_25_0940,SST,3.0.7,24.003812957317173,
go,sst_images/Right_Arrow.bmp,None,2,703,None,0,7,7,7,,2,1,0.4595705939864274,go,0.05,0.703,1.7029999999999998,036,Scanner,R,2,2019_Aug_25_0940,SST,3.0.7,24.003812957317173,
go,sst_images/Right_Arrow.bmp,None,2,1218,None,0,8,8,8,,2,1,0.6690971410134807,go,0.05,1.218,2.218,036,Scanner,R,2,2019_Aug_25_0940,SST,3.0.7,24.003812957317173,
stop,sst_images/Right_Arrow.bmp,sst_images/Stop_Arrow.bmp,none,872,None,0,9,9,9,,None,1,,stop,0.1,0.872,1.8719999999999999,036,Scanner,R,2,2019_Aug_25_0940,SST,3.0.7,24.003812957317173,
go,sst_images/Left_Arrow.bmp,None,1,924,None,0,10,10,10,,1,1,0.48931971099227667,go,0.1,0.924,1.924,036,Scanner,R,2,2019_Aug_25_0940,SST,3.0.7,24.003812957317173,
go,sst_images/Right_Arrow.bmp,None,2,719,None,0,11,11,11,,2,1,0.6290938160091173,go,0.1,0.719,1.7189999999999999,036,Scanner,R,2,2019_Aug_25_0940,SST,3.0.7,24.003812957317173,
go,sst_images/Left_Arrow.bmp,None,1,860,None,0,12,12,12,,1,1,0.5834055159939453,go,0.1,0.86,1.8599999999999999,036,Scanner,R,2,2019_Aug_25_0940,SST,3.0.7,24.003812957317173,
go,sst_images/Left_Arrow.bmp,None,1,1067,None,0,13,13,13,,1,1,0.542715676012449,go,0.1,1.067,2.067,036,Scanner,R,2,2019_Aug_25_0940,SST,3.0.7,24.003812957317173,
go,sst_images/Left_Arrow.bmp,None,1,1417,None,0,14,14,14,,1,1,0.5442588900041301,go,0.1,1.417,2.417,036,Scanner,R,2,2019_Aug_25_0940,SST,3.0.7,24.003812957317173,
stop,sst_images/Left_Arrow.bmp,sst_images/Stop_Arrow.bmp,none,724,None,0,15,15,15,,None,1,,stop,0.15000000000000002,0.724,1.724,036,Scanner,R,2,2019_Aug_25_0940,SST,3.0.7,24.003812957317173,
go,sst_images/Right_Arrow.bmp,None,2,792,None,0,16,16,16,,2,1,0.5429893510008696,go,0.15000000000000002,0.792,1.792,036,Scanner,R,2,2019_Aug_25_0940,SST,3.0.7,24.003812957317173,
go,sst_images/Left_Arrow.bmp,None,1,829,None,0,17,17,17,,1,1,0.5444158739992417,go,0.15000000000000002,0.829,1.829,036,Scanner,R,2,2019_Aug_25_0940,SST,3.0.7,24.003812957317173,
go,sst_images/Left_Arrow.bmp,None,1,840,None,0,18,18,18,,1,1,0.631648637005128,go,0.15000000000000002,0.84,1.8399999999999999,036,Scanner,R,2,2019_Aug_25_0940,SST,3.0.7,24.003812957317173,
go,sst_images/Right_Arrow.bmp,None,2,802,None,0,19,19,19,,2,1,0.7140284420165699,go,0.15000000000000002,0.802,1.802,036,Scanner,R,2,2019_Aug_25_0940,SST,3.0.7,24.003812957317173,
go,sst_images/Left_Arrow.bmp,None,1,747,None,0,20,20,20,,1,1,0.5039987069903873,go,0.15000000000000002,0.747,1.7469999999999999,036,Scanner,R,2,2019_Aug_25_0940,SST,3.0.7,24.003812957317173,
stop,sst_images/Left_Arrow.bmp,sst_images/Stop_Arrow.bmp,none,735,None,0,21,21,21,,None,1,,stop,0.2,0.735,1.735,036,Scanner,R,2,2019_Aug_25_0940,SST,3.0.7,24.003812957317173,
go,sst_images/Right_Arrow.bmp,None,2,711,None,0,22,22,22,,2,1,0.546139129990479,go,0.2,0.711,1.7109999999999999,036,Scanner,R,2,2019_Aug_25_0940,SST,3.0.7,24.003812957317173,
go,sst_images/Left_Arrow.bmp,None,1,810,None,0,23,23,23,,1,1,0.5893948379962239,go,0.2,0.81,1.81,036,Scanner,R,2,2019_Aug_25_0940,SST,3.0.7,24.003812957317173,
go,sst_images/Right_Arrow.bmp,None,2,703,None,0,24,24,24,,2,1,0.6236085460113827,go,0.2,0.703,1.7029999999999998,036,Scanner,R,2,2019_Aug_25_0940,SST,3.0.7,24.003812957317173,
go,sst_images/Right_Arrow.bmp,None,2,1071,None,0,25,25,25,,2,1,0.5847884980030358,go,0.2,1.071,2.0709999999999997,036,Scanner,R,2,2019_Aug_25_0940,SST,3.0.7,24.003812957317173,
go,sst_images/Left_Arrow.bmp,None,1,762,None,0,26,26,26,,1,1,0.5413272839796264,go,0.2,0.762,1.762,036,Scanner,R,2,2019_Aug_25_0940,SST,3.0.7,24.003812957317173,
go,sst_images/Right_Arrow.bmp,None,2,722,None,0,27,27,27,,2,1,0.5815764470025897,go,0.2,0.722,1.722,036,Scanner,R,2,2019_Aug_25_0940,SST,3.0.7,24.003812957317173,
go,sst_images/Right_Arrow.bmp,None,2,912,None,0,28,28,28,,2,1,0.5445170470047742,go,0.2,0.912,1.912,036,Scanner,R,2,2019_Aug_25_0940,SST,3.0.7,24.003812957317173,
go,sst_images/Left_Arrow.bmp,None,1,817,None,0,29,29,29,,1,1,0.6706487080082297,go,0.2,0.817,1.817,036,Scanner,R,2,2019_Aug_25_0940,SST,3.0.7,24.003812957317173,
go,sst_images/Right_Arrow.bmp,None,2,1169,None,0,30,30,30,,2,1,0.5864048010262195,go,0.2,1.169,2.169,036,Scanner,R,2,2019_Aug_25_0940,SST,3.0.7,24.003812957317173,
stop,sst_images/Right_Arrow.bmp,sst_images/Stop_Arrow.bmp,none,739,None,0,31,31,31,,2,0,0.5055221150105353,stop,0.15000000000000002,0.739,1.7334778849894645,036,Scanner,R,2,2019_Aug_25_0940,SST,3.0.7,24.003812957317173,
go,sst_images/Left_Arrow.bmp,None,1,703,None,0,32,32,32,,1,1,0.7109566550061572,go,0.15000000000000002,0.703,1.7029999999999998,036,Scanner,R,2,2019_Aug_25_0940,SST,3.0.7,24.003812957317173,
go,sst_images/Left_Arrow.bmp,None,1,871,None,0,33,33,33,,1,1,0.5468984379840549,go,0.15000000000000002,0.871,1.871,036,Scanner,R,2,2019_Aug_25_0940,SST,3.0.7,24.003812957317173,
go,sst_images/Right_Arrow.bmp,None,2,706,None,0,34,34,34,,2,1,0.5464140370022506,go,0.15000000000000002,0.706,1.706,036,Scanner,R,2,2019_Aug_25_0940,SST,3.0.7,24.003812957317173,
go,sst_images/Right_Arrow.bmp,None,2,1169,None,0,35,35,35,,2,1,0.6300156689831056,go,0.15000000000000002,1.169,2.169,036,Scanner,R,2,2019_Aug_25_0940,SST,3.0.7,24.003812957317173,
go,sst_images/Left_Arrow.bmp,None,1,792,None,0,36,36,36,,1,1,0.6308658809866756,go,0.15000000000000002,0.792,1.792,036,Scanner,R,2,2019_Aug_25_0940,SST,3.0.7,24.003812957317173,
go,sst_images/Left_Arrow.bmp,None,1,787,None,0,37,37,37,,1,1,0.7135314700135496,go,0.15000000000000002,0.787,1.787,036,Scanner,R,2,2019_Aug_25_0940,SST,3.0.7,24.003812957317173,
go,sst_images/Right_Arrow.bmp,None,2,739,None,0,38,38,38,,None,0,,go,0.15000000000000002,0.739,1.7389999999999999,036,Scanner,R,2,2019_Aug_25_0940,SST,3.0.7,24.003812957317173,
go,sst_images/Left_Arrow.bmp,None,1,858,None,0,39,39,39,,1,1,0.6706080760050099,go,0.15000000000000002,0.858,1.858,036,Scanner,R,2,2019_Aug_25_0940,SST,3.0.7,24.003812957317173,
go,sst_images/Left_Arrow.bmp,None,1,818,None,0,40,40,40,,1,1,0.5464077460055705,go,0.15000000000000002,0.818,1.818,036,Scanner,R,2,2019_Aug_25_0940,SST,3.0.7,24.003812957317173,
go,sst_images/Right_Arrow.bmp,None,2,775,None,0,41,41,41,,2,1,0.5049782909918576,go,0.15000000000000002,0.775,1.775,036,Scanner,R,2,2019_Aug_25_0940,SST,3.0.7,24.003812957317173,
stop,sst_images/Right_Arrow.bmp,sst_images/Stop_Arrow.bmp,none,704,None,0,42,42,42,,None,1,,stop,0.2,0.704,1.704,036,Scanner,R,2,2019_Aug_25_0940,SST,3.0.7,24.003812957317173,
go,sst_images/Right_Arrow.bmp,None,2,756,None,0,43,43,43,,2,1,0.5863471110060345,go,0.2,0.756,1.756,036,Scanner,R,2,2019_Aug_25_0940,SST,3.0.7,24.003812957317173,
go,sst_images/Right_Arrow.bmp,None,2,1041,None,0,44,44,44,,2,1,0.6309135009942111,go,0.2,1.041,2.041,036,Scanner,R,2,2019_Aug_25_0940,SST,3.0.7,24.003812957317173,
go,sst_images/Left_Arrow.bmp,None,1,1155,None,0,45,45,45,,1,1,0.5463242960104253,go,0.2,1.155,2.1550000000000002,036,Scanner,R,2,2019_Aug_25_0940,SST,3.0.7,24.003812957317173,
stop,sst_images/Left_Arrow.bmp,sst_images/Stop_Arrow.bmp,none,973,None,0,46,46,46,,1,0,0.548379529005615,stop,0.15000000000000002,0.973,1.9246204709943848,036,Scanner,R,2,2019_Aug_25_0940,SST,3.0.7,24.003812957317173,
go,sst_images/Left_Arrow.bmp,None,1,1002,None,0,47,47,47,,1,1,0.9192163480038289,go,0.15000000000000002,1.002,2.002,036,Scanner,R,2,2019_Aug_25_0940,SST,3.0.7,24.003812957317173,
go,sst_images/Left_Arrow.bmp,None,1,1142,None,0,48,48,48,,1,1,0.5893217769917101,go,0.15000000000000002,1.142,2.142,036,Scanner,R,2,2019_Aug_25_0940,SST,3.0.7,24.003812957317173,
go,sst_images/Right_Arrow.bmp,None,2,745,None,0,49,49,49,,2,1,0.5472839100111742,go,0.15000000000000002,0.745,1.745,036,Scanner,R,2,2019_Aug_25_0940,SST,3.0.7,24.003812957317173,
stop,sst_images/Right_Arrow.bmp,sst_images/Stop_Arrow.bmp,none,976,None,0,50,50,50,,2,0,0.4462317989964504,stop,0.10000000000000002,0.976,1.9797682010035496,036,Scanner,R,2,2019_Aug_25_0940,SST,3.0.7,24.003812957317173,
go,sst_images/Right_Arrow.bmp,None,2,1164,None,0,51,51,51,,2,1,0.5048824349942151,go,0.10000000000000002,1.164,2.1639999999999997,036,Scanner,R,2,2019_Aug_25_0940,SST,3.0.7,24.003812957317173,
go,sst_images/Left_Arrow.bmp,None,1,1046,None,0,52,52,52,,1,1,0.5853562709817197,go,0.10000000000000002,1.046,2.0460000000000003,036,Scanner,R,2,2019_Aug_25_0940,SST,3.0.7,24.003812957317173,
stop,sst_images/Right_Arrow.bmp,sst_images/Stop_Arrow.bmp,none,745,None,0,53,53,53,,None,1,,stop,0.15000000000000002,0.745,1.745,036,Scanner,R,2,2019_Aug_25_0940,SST,3.0.7,24.003812957317173,
go,sst_images/Left_Arrow.bmp,None,1,1477,None,0,54,54,54,,1,1,0.5472673829935957,go,0.15000000000000002,1.477,2.4770000000000003,036,Scanner,R,2,2019_Aug_25_0940,SST,3.0.7,24.003812957317173,
go,sst_images/Left_Arrow.bmp,None,1,702,None,0,55,55,55,,1,1,0.5902694010001142,go,0.15000000000000002,0.702,1.702,036,Scanner,R,2,2019_Aug_25_0940,SST,3.0.7,24.003812957317173,
go,sst_images/Right_Arrow.bmp,None,2,1051,None,0,56,56,56,,2,1,0.6697718029899988,go,0.15000000000000002,1.051,2.051,036,Scanner,R,2,2019_Aug_25_0940,SST,3.0.7,24.003812957317173,
go,sst_images/Left_Arrow.bmp,None,1,1303,None,0,57,57,57,,1,1,0.9201534879975952,go,0.15000000000000002,1.303,2.303,036,Scanner,R,2,2019_Aug_25_0940,SST,3.0.7,24.003812957317173,
go,sst_images/Left_Arrow.bmp,None,1,920,None,0,58,58,58,,1,1,0.5867682140087709,go,0.15000000000000002,0.92,1.92,036,Scanner,R,2,2019_Aug_25_0940,SST,3.0.7,24.003812957317173,
go,sst_images/Right_Arrow.bmp,None,2,1077,None,0,59,59,59,,2,1,0.5046558509930037,go,0.15000000000000002,1.077,2.077,036,Scanner,R,2,2019_Aug_25_0940,SST,3.0.7,24.003812957317173,
go,sst_images/Right_Arrow.bmp,None,2,766,None,0,60,60,60,,2,1,0.5879356490040664,go,0.15000000000000002,0.766,1.766,036,Scanner,R,2,2019_Aug_25_0940,SST,3.0.7,24.003812957317173,
go,sst_images/Left_Arrow.bmp,None,1,1016,None,0,61,61,61,,1,1,0.8390697019931395,go,0.15000000000000002,1.016,2.016,036,Scanner,R,2,2019_Aug_25_0940,SST,3.0.7,24.003812957317173,
go,sst_images/Right_Arrow.bmp,None,2,892,None,0,62,62,62,,2,1,0.7080993019917514,go,0.15000000000000002,0.892,1.892,036,Scanner,R,2,2019_Aug_25_0940,SST,3.0.7,24.003812957317173,
go,sst_images/Left_Arrow.bmp,None,1,973,None,0,63,63,63,,1,1,0.5034754849912133,go,0.15000000000000002,0.973,1.9729999999999999,036,Scanner,R,2,2019_Aug_25_0940,SST,3.0.7,24.003812957317173,
go,sst_images/Right_Arrow.bmp,None,2,904,None,0,64,64,64,,2,1,0.5062559979851358,go,0.15000000000000002,0.904,1.904,036,Scanner,R,2,2019_Aug_25_0940,SST,3.0.7,24.003812957317173,
stop,sst_images/Left_Arrow.bmp,sst_images/Stop_Arrow.bmp,none,766,None,0,65,65,65,,None,1,,stop,0.2,0.766,1.7659999999999998,036,Scanner,R,2,2019_Aug_25_0940,SST,3.0.7,24.003812957317173,
go,sst_images/Right_Arrow.bmp,None,2,728,None,0,66,66,66,,2,1,0.5787042180018034,go,0.2,0.728,1.728,036,Scanner,R,2,2019_Aug_25_0940,SST,3.0.7,24.003812957317173,
go,sst_images/Left_Arrow.bmp,None,1,1078,None,0,67,67,67,,1,1,0.8357942579896189,go,0.2,1.078,2.0780000000000003,036,Scanner,R,2,2019_Aug_25_0940,SST,3.0.7,24.003812957317173,
go,sst_images/Right_Arrow.bmp,None,2,1715,None,0,68,68,68,,None,0,,go,0.2,1.715,2.715,036,Scanner,R,2,2019_Aug_25_0940,SST,3.0.7,24.003812957317173,
go,sst_images/Left_Arrow.bmp,None,1,794,None,0,69,69,69,,1,1,0.6696108729811385,go,0.2,0.794,1.794,036,Scanner,R,2,2019_Aug_25_0940,SST,3.0.7,24.003812957317173,
go,sst_images/Right_Arrow.bmp,None,2,1109,None,0,70,70,70,,2,1,0.5469331489875913,go,0.2,1.109,2.109,036,Scanner,R,2,2019_Aug_25_0940,SST,3.0.7,24.003812957317173,
go,sst_images/Left_Arrow.bmp,None,1,826,None,0,71,71,71,,None,0,,go,0.2,0.826,1.826,036,Scanner,R,2,2019_Aug_25_0940,SST,3.0.7,24.003812957317173,
stop,sst_images/Right_Arrow.bmp,sst_images/Stop_Arrow.bmp,none,718,None,0,72,72,72,,None,1,,stop,0.25,0.718,1.718,036,Scanner,R,2,2019_Aug_25_0940,SST,3.0.7,24.003812957317173,
go,sst_images/Right_Arrow.bmp,None,2,927,None,0,73,73,73,,2,1,0.46111766799003817,go,0.25,0.927,1.927,036,Scanner,R,2,2019_Aug_25_0940,SST,3.0.7,24.003812957317173,
go,sst_images/Right_Arrow.bmp,None,2,1313,None,0,74,74,74,,2,1,0.7524007830070332,go,0.25,1.313,2.3129999999999997,036,Scanner,R,2,2019_Aug_25_0940,SST,3.0.7,24.003812957317173,
stop,sst_images/Left_Arrow.bmp,sst_images/Stop_Arrow.bmp,none,1275,None,0,75,75,75,,None,1,,stop,0.3,1.275,2.275,036,Scanner,R,2,2019_Aug_25_0940,SST,3.0.7,24.003812957317173,
go,sst_images/Left_Arrow.bmp,None,1,834,None,0,76,76,76,,1,1,0.6293660860101227,go,0.3,0.834,1.834,036,Scanner,R,2,2019_Aug_25_0940,SST,3.0.7,24.003812957317173,
go,sst_images/Left_Arrow.bmp,None,1,891,None,0,77,77,77,,1,1,0.5478101230110042,go,0.3,0.891,1.891,036,Scanner,R,2,2019_Aug_25_0940,SST,3.0.7,24.003812957317173,
go,sst_images/Right_Arrow.bmp,None,2,778,None,0,78,78,78,,2,1,0.4863706089963671,go,0.3,0.778,1.778,036,Scanner,R,2,2019_Aug_25_0940,SST,3.0.7,24.003812957317173,
go,sst_images/Right_Arrow.bmp,None,2,855,None,0,79,79,79,,2,1,0.5038295509875752,go,0.3,0.855,1.855,036,Scanner,R,2,2019_Aug_25_0940,SST,3.0.7,24.003812957317173,
stop,sst_images/Right_Arrow.bmp,sst_images/Stop_Arrow.bmp,none,851,None,0,80,80,80,,2,0,0.4925568370090332,stop,0.25,0.851,1.9584431629909669,036,Scanner,R,2,2019_Aug_25_0940,SST,3.0.7,24.003812957317173,
go,sst_images/Right_Arrow.bmp,None,2,765,None,0,81,81,81,,2,1,0.7147290690045338,go,0.25,0.765,1.7650000000000001,036,Scanner,R,2,2019_Aug_25_0940,SST,3.0.7,24.003812957317173,
stop,sst_images/Right_Arrow.bmp,sst_images/Stop_Arrow.bmp,none,761,None,0,82,82,82,,None,1,,stop,0.3,0.761,1.761,036,Scanner,R,2,2019_Aug_25_0940,SST,3.0.7,24.003812957317173,
go,sst_images/Left_Arrow.bmp,None,1,785,None,0,83,83,83,,1,1,0.586433329997817,go,0.3,0.785,1.7850000000000001,036,Scanner,R,2,2019_Aug_25_0940,SST,3.0.7,24.003812957317173,
go,sst_images/Left_Arrow.bmp,None,1,1921,None,0,84,84,84,,1,1,0.6289966570038814,go,0.3,1.921,2.9210000000000003,036,Scanner,R,2,2019_Aug_25_0940,SST,3.0.7,24.003812957317173,
go,sst_images/Right_Arrow.bmp,None,2,734,None,0,85,85,85,,2,1,0.671234089997597,go,0.3,0.734,1.734,036,Scanner,R,2,2019_Aug_25_0940,SST,3.0.7,24.003812957317173,
go,sst_images/Left_Arrow.bmp,None,1,827,None,0,86,86,86,,None,0,,go,0.3,0.827,1.827,036,Scanner,R,2,2019_Aug_25_0940,SST,3.0.7,24.003812957317173,
stop,sst_images/Left_Arrow.bmp,sst_images/Stop_Arrow.bmp,none,763,None,0,87,87,87,,1,0,0.5608782070048619,stop,0.25,0.763,1.802121792995138,036,Scanner,R,2,2019_Aug_25_0940,SST,3.0.7,24.003812957317173,
go,sst_images/Right_Arrow.bmp,None,2,848,None,0,88,88,88,,2,1,0.402158396987943,go,0.25,0.848,1.8479999999999999,036,Scanner,R,2,2019_Aug_25_0940,SST,3.0.7,24.003812957317173,
go,sst_images/Left_Arrow.bmp,None,1,825,None,0,89,89,89,,1,1,0.5026929409941658,go,0.25,0.825,1.825,036,Scanner,R,2,2019_Aug_25_0940,SST,3.0.7,24.003812957317173,
go,sst_images/Right_Arrow.bmp,None,2,724,None,0,90,90,90,,2,1,0.6271765599958599,go,0.25,0.724,1.724,036,Scanner,R,2,2019_Aug_25_0940,SST,3.0.7,24.003812957317173,
go,sst_images/Left_Arrow.bmp,None,1,716,None,0,91,91,91,,1,1,0.5352610800182447,go,0.25,0.716,1.716,036,Scanner,R,2,2019_Aug_25_0940,SST,3.0.7,24.003812957317173,
go,sst_images/Left_Arrow.bmp,None,1,927,None,0,92,92,92,,1,1,0.5460514659935143,go,0.25,0.927,1.927,036,Scanner,R,2,2019_Aug_25_0940,SST,3.0.7,24.003812957317173,
stop,sst_images/Right_Arrow.bmp,sst_images/Stop_Arrow.bmp,none,845,None,0,93,93,93,,None,1,,stop,0.3,0.845,1.845,036,Scanner,R,2,2019_Aug_25_0940,SST,3.0.7,24.003812957317173,
go,sst_images/Left_Arrow.bmp,None,1,1520,None,0,94,94,94,,1,1,0.5012601960042957,go,0.3,1.52,2.52,036,Scanner,R,2,2019_Aug_25_0940,SST,3.0.7,24.003812957317173,
go,sst_images/Right_Arrow.bmp,None,2,733,None,0,95,95,95,,2,1,0.49996130997897126,go,0.3,0.733,1.733,036,Scanner,R,2,2019_Aug_25_0940,SST,3.0.7,24.003812957317173,
go,sst_images/Left_Arrow.bmp,None,1,1356,None,0,96,96,96,,1,1,0.5451332470111083,go,0.3,1.356,2.356,036,Scanner,R,2,2019_Aug_25_0940,SST,3.0.7,24.003812957317173,
stop,sst_images/Right_Arrow.bmp,sst_images/Stop_Arrow.bmp,none,965,None,0,97,97,97,,2,0,0.6073483219952323,stop,0.25,0.965,1.9576516780047677,036,Scanner,R,2,2019_Aug_25_0940,SST,3.0.7,24.003812957317173,
go,sst_images/Right_Arrow.bmp,None,2,763,None,0,98,98,98,,2,1,0.5453299410000909,go,0.25,0.763,1.763,036,Scanner,R,2,2019_Aug_25_0940,SST,3.0.7,24.003812957317173,
go,sst_images/Right_Arrow.bmp,None,2,718,None,0,99,99,99,,2,1,0.4408397799998056,go,0.25,0.718,1.718,036,Scanner,R,2,2019_Aug_25_0940,SST,3.0.7,24.003812957317173,
go,sst_images/Left_Arrow.bmp,None,1,808,None,0,100,100,100,,1,1,0.671037678985158,go,0.25,0.808,1.808,036,Scanner,R,2,2019_Aug_25_0940,SST,3.0.7,24.003812957317173,
go,sst_images/Right_Arrow.bmp,None,2,836,None,0,101,101,101,,2,1,0.5896331199910492,go,0.25,0.836,1.8359999999999999,036,Scanner,R,2,2019_Aug_25_0940,SST,3.0.7,24.003812957317173,
go,sst_images/Right_Arrow.bmp,None,2,1043,None,0,102,102,102,,2,1,0.6262747589789797,go,0.25,1.043,2.043,036,Scanner,R,2,2019_Aug_25_0940,SST,3.0.7,24.003812957317173,
go,sst_images/Left_Arrow.bmp,None,1,934,None,0,103,103,103,,None,0,,go,0.25,0.934,1.9340000000000002,036,Scanner,R,2,2019_Aug_25_0940,SST,3.0.7,24.003812957317173,
stop,sst_images/Left_Arrow.bmp,sst_images/Stop_Arrow.bmp,none,796,None,0,104,104,104,,None,1,,stop,0.3,0.796,1.796,036,Scanner,R,2,2019_Aug_25_0940,SST,3.0.7,24.003812957317173,
go,sst_images/Left_Arrow.bmp,None,1,935,None,0,105,105,105,,2,0,0.5046711920003872,go,0.3,0.935,1.935,036,Scanner,R,2,2019_Aug_25_0940,SST,3.0.7,24.003812957317173,
go,sst_images/Right_Arrow.bmp,None,2,767,None,0,106,106,106,,2,1,0.4636206840223167,go,0.3,0.767,1.767,036,Scanner,R,2,2019_Aug_25_0940,SST,3.0.7,24.003812957317173,
go,sst_images/Right_Arrow.bmp,None,2,726,None,0,107,107,107,,2,1,0.5468913380173035,go,0.3,0.726,1.726,036,Scanner,R,2,2019_Aug_25_0940,SST,3.0.7,24.003812957317173,
go,sst_images/Left_Arrow.bmp,None,1,1027,None,0,108,108,108,,1,1,0.5443119090050459,go,0.3,1.027,2.027,036,Scanner,R,2,2019_Aug_25_0940,SST,3.0.7,24.003812957317173,
stop,sst_images/Left_Arrow.bmp,sst_images/Stop_Arrow.bmp,none,772,None,0,109,109,109,,1,0,0.5290300879860297,stop,0.25,0.772,1.8429699120139704,036,Scanner,R,2,2019_Aug_25_0940,SST,3.0.7,24.003812957317173,
go,sst_images/Right_Arrow.bmp,None,2,785,None,0,110,110,110,,2,1,0.49941712702275254,go,0.25,0.785,1.7850000000000001,036,Scanner,R,2,2019_Aug_25_0940,SST,3.0.7,24.003812957317173,
go,sst_images/Left_Arrow.bmp,None,1,729,None,0,111,111,111,,1,1,0.4594684799958486,go,0.25,0.729,1.729,036,Scanner,R,2,2019_Aug_25_0940,SST,3.0.7,24.003812957317173,
go,sst_images/Right_Arrow.bmp,None,2,834,None,0,112,112,112,,2,1,0.5411801429872867,go,0.25,0.834,1.834,036,Scanner,R,2,2019_Aug_25_0940,SST,3.0.7,24.003812957317173,
stop,sst_images/Right_Arrow.bmp,sst_images/Stop_Arrow.bmp,none,885,None,0,113,113,113,,2,0,0.43926858200575225,stop,0.2,0.885,1.9957314179942478,036,Scanner,R,2,2019_Aug_25_0940,SST,3.0.7,24.003812957317173,
go,sst_images/Left_Arrow.bmp,None,1,1921,None,0,114,114,114,,1,1,0.587831910001114,go,0.2,1.921,2.9210000000000003,036,Scanner,R,2,2019_Aug_25_0940,SST,3.0.7,24.003812957317173,
go,sst_images/Right_Arrow.bmp,None,2,871,None,0,115,115,115,,2,1,0.5858105079969391,go,0.2,0.871,1.871,036,Scanner,R,2,2019_Aug_25_0940,SST,3.0.7,24.003812957317173,
go,sst_images/Left_Arrow.bmp,None,1,716,None,0,116,116,116,,1,1,0.46099097398109734,go,0.2,0.716,1.716,036,Scanner,R,2,2019_Aug_25_0940,SST,3.0.7,24.003812957317173,
go,sst_images/Right_Arrow.bmp,None,2,796,None,0,117,117,117,,2,1,0.5019758379785344,go,0.2,0.796,1.796,036,Scanner,R,2,2019_Aug_25_0940,SST,3.0.7,24.003812957317173,
stop,sst_images/Left_Arrow.bmp,sst_images/Stop_Arrow.bmp,none,1067,None,0,118,118,118,,1,0,0.47066106100101024,stop,0.15000000000000002,1.067,2.0963389389989895,036,Scanner,R,2,2019_Aug_25_0940,SST,3.0.7,24.003812957317173,
go,sst_images/Left_Arrow.bmp,None,1,1051,None,0,119,119,119,,1,1,0.5451625900168438,go,0.15000000000000002,1.051,2.051,036,Scanner,R,2,2019_Aug_25_0940,SST,3.0.7,24.003812957317173,
go,sst_images/Right_Arrow.bmp,None,2,787,None,0,120,120,120,,2,1,0.504541395988781,go,0.15000000000000002,0.787,1.787,036,Scanner,R,2,2019_Aug_25_0940,SST,3.0.7,24.003812957317173,
go,sst_images/Left_Arrow.bmp,None,1,912,None,0,121,121,121,,1,1,0.46122477200697176,go,0.15000000000000002,0.912,1.912,036,Scanner,R,2,2019_Aug_25_0940,SST,3.0.7,24.003812957317173,
go,sst_images/Right_Arrow.bmp,None,2,998,None,0,122,122,122,,2,1,0.41932372099836357,go,0.15000000000000002,0.998,1.998,036,Scanner,R,2,2019_Aug_25_0940,SST,3.0.7,24.003812957317173,
stop,sst_images/Left_Arrow.bmp,sst_images/Stop_Arrow.bmp,none,705,None,0,123,123,123,,None,1,,stop,0.2,0.705,1.7049999999999998,036,Scanner,R,2,2019_Aug_25_0940,SST,3.0.7,24.003812957317173,
go,sst_images/Right_Arrow.bmp,None,2,752,None,0,124,124,124,,2,1,0.546098015998723,go,0.2,0.752,1.752,036,Scanner,R,2,2019_Aug_25_0940,SST,3.0.7,24.003812957317173,
go,sst_images/Left_Arrow.bmp,None,1,1173,None,0,125,125,125,,1,1,0.4990446309966501,go,0.2,1.173,2.173,036,Scanner,R,2,2019_Aug_25_0940,SST,3.0.7,24.003812957317173,
go,sst_images/Left_Arrow.bmp,None,1,976,None,0,126,126,126,,2,0,0.4609732469834853,go,0.2,0.976,1.976,036,Scanner,R,2,2019_Aug_25_0940,SST,3.0.7,24.003812957317173,
stop,sst_images/Right_Arrow.bmp,sst_images/Stop_Arrow.bmp,none,706,None,0,127,127,127,,2,0,0.5307699959957972,stop,0.15000000000000002,0.706,1.6752300040042027,036,Scanner,R,2,2019_Aug_25_0940,SST,3.0.7,24.003812957317173,
go,sst_images/Left_Arrow.bmp,None,1,702,None,0,128,128,128,,1,1,0.6293448469950818,go,0.15000000000000002,0.702,1.702,036,Scanner,R,2,2019_Aug_25_0940,SST,3.0.7,24.003812957317173,
go,sst_images/Right_Arrow.bmp,None,2,1201,None,0,129,129,129,,2,1,0.7544977880024817,go,0.15000000000000002,1.201,2.201,036,Scanner,R,2,2019_Aug_25_0940,SST,3.0.7,24.003812957317173,
go,sst_images/Left_Arrow.bmp,None,1,837,None,0,130,130,130,,1,1,0.4580862179864198,go,0.15000000000000002,0.837,1.837,036,Scanner,R,2,2019_Aug_25_0940,SST,3.0.7,24.003812957317173,
go,sst_images/Left_Arrow.bmp,None,1,1225,None,0,131,131,131,,1,1,0.6294744509796146,go,0.15000000000000002,1.225,2.225,036,Scanner,R,2,2019_Aug_25_0940,SST,3.0.7,24.003812957317173,
go,sst_images/Left_Arrow.bmp,None,1,988,None,0,132,132,132,,1,1,0.6722726739826612,go,0.15000000000000002,0.988,1.988,036,Scanner,R,2,2019_Aug_25_0940,SST,3.0.7,24.003812957317173,
stop,sst_images/Left_Arrow.bmp,sst_images/Stop_Arrow.bmp,none,792,None,0,133,133,133,,None,1,,stop,0.2,0.792,1.792,036,Scanner,R,2,2019_Aug_25_0940,SST,3.0.7,24.003812957317173,
go,sst_images/Right_Arrow.bmp,None,2,735,None,0,134,134,134,,2,1,0.5877333520038519,go,0.2,0.735,1.7349999999999999,036,Scanner,R,2,2019_Aug_25_0940,SST,3.0.7,24.003812957317173,
go,sst_images/Left_Arrow.bmp,None,1,1271,None,0,135,135,135,,1,1,0.7944824379810598,go,0.2,1.271,2.271,036,Scanner,R,2,2019_Aug_25_0940,SST,3.0.7,24.003812957317173,
go,sst_images/Left_Arrow.bmp,None,1,712,None,0,136,136,136,,1,1,0.5891821589902975,go,0.2,0.712,1.712,036,Scanner,R,2,2019_Aug_25_0940,SST,3.0.7,24.003812957317173,
go,sst_images/Right_Arrow.bmp,None,2,734,None,0,137,137,137,,1,0,0.4568210440047551,go,0.2,0.734,1.734,036,Scanner,R,2,2019_Aug_25_0940,SST,3.0.7,24.003812957317173,
go,sst_images/Right_Arrow.bmp,None,2,912,None,0,138,138,138,,2,1,0.5905906980042346,go,0.2,0.912,1.912,036,Scanner,R,2,2019_Aug_25_0940,SST,3.0.7,24.003812957317173,
go,sst_images/Left_Arrow.bmp,None,1,733,None,0,139,139,139,,1,1,0.5853111989854369,go,0.2,0.733,1.733,036,Scanner,R,2,2019_Aug_25_0940,SST,3.0.7,24.003812957317173,
stop,sst_images/Right_Arrow.bmp,sst_images/Stop_Arrow.bmp,none,813,None,0,140,140,140,,None,1,,stop,0.25,0.813,1.813,036,Scanner,R,2,2019_Aug_25_0940,SST,3.0.7,24.003812957317173,
go,sst_images/Right_Arrow.bmp,None,2,701,None,0,141,141,141,,2,1,0.7099114960001316,go,0.25,0.701,1.701,036,Scanner,R,2,2019_Aug_25_0940,SST,3.0.7,24.003812957317173,
go,sst_images/Left_Arrow.bmp,None,1,750,None,0,142,142,142,,1,1,0.6724193400004879,go,0.25,0.75,1.75,036,Scanner,R,2,2019_Aug_25_0940,SST,3.0.7,24.003812957317173,
stop,sst_images/Right_Arrow.bmp,sst_images/Stop_Arrow.bmp,none,706,None,0,143,143,143,,None,1,,stop,0.3,0.706,1.706,036,Scanner,R,2,2019_Aug_25_0940,SST,3.0.7,24.003812957317173,
go,sst_images/Left_Arrow.bmp,None,1,763,None,0,144,144,144,,1,1,0.6708465370174963,go,0.3,0.763,1.763,036,Scanner,R,2,2019_Aug_25_0940,SST,3.0.7,24.003812957317173,
go,sst_images/Right_Arrow.bmp,None,2,1075,None,0,145,145,145,,2,1,0.544909941003425,go,0.3,1.075,2.075,036,Scanner,R,2,2019_Aug_25_0940,SST,3.0.7,24.003812957317173,
go,sst_images/Left_Arrow.bmp,None,1,826,None,0,146,146,146,,1,1,0.547139572998276,go,0.3,0.826,1.826,036,Scanner,R,2,2019_Aug_25_0940,SST,3.0.7,24.003812957317173,
go,sst_images/Right_Arrow.bmp,None,2,897,None,0,147,147,147,,2,1,0.45910590898711234,go,0.3,0.897,1.897,036,Scanner,R,2,2019_Aug_25_0940,SST,3.0.7,24.003812957317173,
go,sst_images/Left_Arrow.bmp,None,1,728,None,0,148,148,148,,1,1,0.5454698640096467,go,0.3,0.728,1.728,036,Scanner,R,2,2019_Aug_25_0940,SST,3.0.7,24.003812957317173,
go,sst_images/Right_Arrow.bmp,None,2,961,None,0,149,149,149,,2,1,0.4635475020040758,go,0.3,0.961,1.9609999999999999,036,Scanner,R,2,2019_Aug_25_0940,SST,3.0.7,24.003812957317173,
go,sst_images/Right_Arrow.bmp,None,2,774,None,0,150,150,150,,2,1,0.5884025570121594,go,0.3,0.774,1.774,036,Scanner,R,2,2019_Aug_25_0940,SST,3.0.7,24.003812957317173,
go,sst_images/Left_Arrow.bmp,None,1,1307,None,0,151,151,151,,1,1,0.5460671760083642,go,0.3,1.307,2.307,036,Scanner,R,2,2019_Aug_25_0940,SST,3.0.7,24.003812957317173,
go,sst_images/Right_Arrow.bmp,None,2,892,None,0,152,152,152,,2,1,0.6695801989990287,go,0.3,0.892,1.892,036,Scanner,R,2,2019_Aug_25_0940,SST,3.0.7,24.003812957317173,
go,sst_images/Left_Arrow.bmp,None,1,1466,None,0,153,153,153,,1,1,0.6683614449866582,go,0.3,1.466,2.466,036,Scanner,R,2,2019_Aug_25_0940,SST,3.0.7,24.003812957317173,
go,sst_images/Right_Arrow.bmp,None,2,1114,None,0,154,154,154,,2,1,0.7530476770189125,go,0.3,1.114,2.114,036,Scanner,R,2,2019_Aug_25_0940,SST,3.0.7,24.003812957317173,
go,sst_images/Left_Arrow.bmp,None,1,785,None,0,155,155,155,,1,1,0.540839983994374,go,0.3,0.785,1.7850000000000001,036,Scanner,R,2,2019_Aug_25_0940,SST,3.0.7,24.003812957317173,
go,sst_images/Right_Arrow.bmp,None,2,727,None,0,156,156,156,,2,1,0.6289278140175156,go,0.3,0.727,1.7269999999999999,036,Scanner,R,2,2019_Aug_25_0940,SST,3.0.7,24.003812957317173,
go,sst_images/Left_Arrow.bmp,None,1,888,None,0,157,157,157,,1,1,0.7522912670101505,go,0.3,0.888,1.888,036,Scanner,R,2,2019_Aug_25_0940,SST,3.0.7,24.003812957317173,
go,sst_images/Left_Arrow.bmp,None,1,892,None,0,158,158,158,,1,1,0.585000675986521,go,0.3,0.892,1.892,036,Scanner,R,2,2019_Aug_25_0940,SST,3.0.7,24.003812957317173,
stop,sst_images/Left_Arrow.bmp,sst_images/Stop_Arrow.bmp,none,1025,None,0,159,159,159,,None,1,,stop,0.35,1.025,2.025,036,Scanner,R,2,2019_Aug_25_0940,SST,3.0.7,24.003812957317173,
go,sst_images/Right_Arrow.bmp,None,2,741,None,0,160,160,160,,2,1,0.670372756983852,go,0.35,0.741,1.741,036,Scanner,R,2,2019_Aug_25_0940,SST,3.0.7,24.003812957317173,
go,sst_images/Left_Arrow.bmp,None,1,734,None,0,161,161,161,,1,1,0.5005451650067698,go,0.35,0.734,1.734,036,Scanner,R,2,2019_Aug_25_0940,SST,3.0.7,24.003812957317173,
go,sst_images/Right_Arrow.bmp,None,2,803,None,0,162,162,162,,2,1,0.5863090750062838,go,0.35,0.803,1.803,036,Scanner,R,2,2019_Aug_25_0940,SST,3.0.7,24.003812957317173,
go,sst_images/Right_Arrow.bmp,None,2,885,None,0,163,163,163,,1,0,0.5016782780003268,go,0.35,0.885,1.885,036,Scanner,R,2,2019_Aug_25_0940,SST,3.0.7,24.003812957317173,
go,sst_images/Right_Arrow.bmp,None,2,894,None,0,164,164,164,,2,1,0.4211873129825108,go,0.35,0.894,1.8940000000000001,036,Scanner,R,2,2019_Aug_25_0940,SST,3.0.7,24.003812957317173,
stop,sst_images/Left_Arrow.bmp,sst_images/Stop_Arrow.bmp,none,1114,None,0,165,165,165,,1,0,0.3969242029997986,stop,0.3,1.114,2.367075797000201,036,Scanner,R,2,2019_Aug_25_0940,SST,3.0.7,24.003812957317173,
go,sst_images/Left_Arrow.bmp,None,1,749,None,0,166,166,166,,1,1,0.46287494999705814,go,0.3,0.749,1.749,036,Scanner,R,2,2019_Aug_25_0940,SST,3.0.7,24.003812957317173,
go,sst_images/Right_Arrow.bmp,None,2,761,None,0,167,167,167,,2,1,0.5463276859954931,go,0.3,0.761,1.7610000000000001,036,Scanner,R,2,2019_Aug_25_0940,SST,3.0.7,24.003812957317173,
stop,sst_images/Left_Arrow.bmp,sst_images/Stop_Arrow.bmp,none,787,None,0,168,168,168,,1,0,0.4803213409904856,stop,0.25,0.787,1.9066786590095144,036,Scanner,R,2,2019_Aug_25_0940,SST,3.0.7,24.003812957317173,
go,sst_images/Right_Arrow.bmp,None,2,749,None,0,169,169,169,,2,1,0.5037149349809624,go,0.25,0.749,1.749,036,Scanner,R,2,2019_Aug_25_0940,SST,3.0.7,24.003812957317173,
go,sst_images/Left_Arrow.bmp,None,1,910,None,0,170,170,170,,1,1,0.5442621349939145,go,0.25,0.91,1.9100000000000001,036,Scanner,R,2,2019_Aug_25_0940,SST,3.0.7,24.003812957317173,
go,sst_images/Right_Arrow.bmp,None,2,706,None,0,171,171,171,,2,1,0.5019004160130862,go,0.25,0.706,1.706,036,Scanner,R,2,2019_Aug_25_0940,SST,3.0.7,24.003812957317173,
go,sst_images/Right_Arrow.bmp,None,2,730,None,0,172,172,172,,2,1,0.5467881039949134,go,0.25,0.73,1.73,036,Scanner,R,2,2019_Aug_25_0940,SST,3.0.7,24.003812957317173,
go,sst_images/Right_Arrow.bmp,None,2,931,None,0,173,173,173,,2,1,0.6705093769996893,go,0.25,0.931,1.931,036,Scanner,R,2,2019_Aug_25_0940,SST,3.0.7,24.003812957317173,
go,sst_images/Left_Arrow.bmp,None,1,701,None,0,174,174,174,,1,1,0.5035583340213634,go,0.25,0.701,1.701,036,Scanner,R,2,2019_Aug_25_0940,SST,3.0.7,24.003812957317173,
stop,sst_images/Right_Arrow.bmp,sst_images/Stop_Arrow.bmp,none,719,None,0,175,175,175,,2,0,0.5800545550009701,stop,0.2,0.719,1.6889454449990298,036,Scanner,R,2,2019_Aug_25_0940,SST,3.0.7,24.003812957317173,
go,sst_images/Right_Arrow.bmp,None,2,725,None,0,176,176,176,,2,1,0.7546153690200299,go,0.2,0.725,1.725,036,Scanner,R,2,2019_Aug_25_0940,SST,3.0.7,24.003812957317173,
go,sst_images/Left_Arrow.bmp,None,1,1025,None,0,177,177,177,,1,1,0.5440392540185712,go,0.2,1.025,2.025,036,Scanner,R,2,2019_Aug_25_0940,SST,3.0.7,24.003812957317173,
stop,sst_images/Left_Arrow.bmp,sst_images/Stop_Arrow.bmp,none,765,None,0,178,178,178,,1,0,0.5312619030009955,stop,0.15000000000000002,0.765,1.7337380969990046,036,Scanner,R,2,2019_Aug_25_0940,SST,3.0.7,24.003812957317173,
go,sst_images/Right_Arrow.bmp,None,2,773,3412.0,0,179,179,179,,2,1,0.9217195569945034,go,0.15000000000000002,0.773,1.7730000000000001,036,Scanner,R,2,2019_Aug_25_0940,SST,3.0.7,24.003812957317173,
