trial_type,arrow_1,arrow_2,corrAns,jitter,run_end_fixation,trials.thisRepN,trials.thisTrialN,trials.thisN,trials.thisIndex,randomized TrialOrder,key_response.keys,key_response.corr,key_response.rt,trial_t.routineEndVal,ss_delay,iti_duration,SOA,participant,prac_or_scan,handedness,run,date,expName,psychopyVersion,frameRate,
go,sst_images/Left_Arrow.bmp,None,1,769,None,0,0,0,0,10,1,1,0.6043317000148818,go,0.05,0.769,1.7690000000000001,037,Scanner,R,1,2019_Aug_23_1226,SST,3.0.7,24.003230911456647,
go,sst_images/Right_Arrow.bmp,None,2,741,None,0,1,1,1,,2,1,0.5463444910128601,go,0.05,0.741,1.741,037,Scanner,R,1,2019_Aug_23_1226,SST,3.0.7,24.003230911456647,
stop,sst_images/Right_Arrow.bmp,sst_images/Stop_Arrow.bmp,none,823,None,0,2,2,2,,None,1,,stop,0.1,0.823,1.823,037,Scanner,R,1,2019_Aug_23_1226,SST,3.0.7,24.003230911456647,
go,sst_images/Right_Arrow.bmp,None,2,901,None,0,3,3,3,,2,1,0.5879419039993081,go,0.1,0.901,1.901,037,Scanner,R,1,2019_Aug_23_1226,SST,3.0.7,24.003230911456647,
go,sst_images/Left_Arrow.bmp,None,1,862,None,0,4,4,4,,1,1,0.4987866510055028,go,0.1,0.862,1.862,037,Scanner,R,1,2019_Aug_23_1226,SST,3.0.7,24.003230911456647,
stop,sst_images/Left_Arrow.bmp,sst_images/Stop_Arrow.bmp,none,783,None,0,5,5,5,,None,1,,stop,0.15000000000000002,0.783,1.7830000000000001,037,Scanner,R,1,2019_Aug_23_1226,SST,3.0.7,24.003230911456647,
go,sst_images/Left_Arrow.bmp,None,1,865,None,0,6,6,6,,1,1,0.5829622589808423,go,0.15000000000000002,0.865,1.865,037,Scanner,R,1,2019_Aug_23_1226,SST,3.0.7,24.003230911456647,
go,sst_images/Right_Arrow.bmp,None,2,952,None,0,7,7,7,,2,1,0.42020025401143357,go,0.15000000000000002,0.952,1.952,037,Scanner,R,1,2019_Aug_23_1226,SST,3.0.7,24.003230911456647,
go,sst_images/Left_Arrow.bmp,None,1,722,None,0,8,8,8,,1,1,0.4587005380017217,go,0.15000000000000002,0.722,1.722,037,Scanner,R,1,2019_Aug_23_1226,SST,3.0.7,24.003230911456647,
stop,sst_images/Left_Arrow.bmp,sst_images/Stop_Arrow.bmp,none,944,None,0,9,9,9,,None,1,,stop,0.2,0.944,1.9439999999999997,037,Scanner,R,1,2019_Aug_23_1226,SST,3.0.7,24.003230911456647,
go,sst_images/Right_Arrow.bmp,None,2,849,None,0,10,10,10,,2,1,0.33785898197675124,go,0.2,0.849,1.849,037,Scanner,R,1,2019_Aug_23_1226,SST,3.0.7,24.003230911456647,
go,sst_images/Right_Arrow.bmp,None,2,707,None,0,11,11,11,,2,1,0.5456591779948212,go,0.2,0.707,1.7069999999999999,037,Scanner,R,1,2019_Aug_23_1226,SST,3.0.7,24.003230911456647,
go,sst_images/Left_Arrow.bmp,None,1,903,None,0,12,12,12,,1,1,0.5018952820100822,go,0.2,0.903,1.903,037,Scanner,R,1,2019_Aug_23_1226,SST,3.0.7,24.003230911456647,
stop,sst_images/Right_Arrow.bmp,sst_images/Stop_Arrow.bmp,none,853,None,0,13,13,13,,2,0,0.45234103401890025,stop,0.15000000000000002,0.853,1.9006589659810997,037,Scanner,R,1,2019_Aug_23_1226,SST,3.0.7,24.003230911456647,
go,sst_images/Right_Arrow.bmp,None,2,1045,None,0,14,14,14,,2,1,0.5876324200071394,go,0.15000000000000002,1.045,2.045,037,Scanner,R,1,2019_Aug_23_1226,SST,3.0.7,24.003230911456647,
go,sst_images/Left_Arrow.bmp,None,1,1497,None,0,15,15,15,,1,1,0.41982628099503927,go,0.15000000000000002,1.497,2.497,037,Scanner,R,1,2019_Aug_23_1226,SST,3.0.7,24.003230911456647,
go,sst_images/Left_Arrow.bmp,None,1,1165,None,0,16,16,16,,1,1,0.5012168179964647,go,0.15000000000000002,1.165,2.165,037,Scanner,R,1,2019_Aug_23_1226,SST,3.0.7,24.003230911456647,
go,sst_images/Left_Arrow.bmp,None,1,1045,None,0,17,17,17,,1,1,0.5879179859766737,go,0.15000000000000002,1.045,2.045,037,Scanner,R,1,2019_Aug_23_1226,SST,3.0.7,24.003230911456647,
go,sst_images/Right_Arrow.bmp,None,2,938,None,0,18,18,18,,2,1,0.5813888459815644,go,0.15000000000000002,0.938,1.938,037,Scanner,R,1,2019_Aug_23_1226,SST,3.0.7,24.003230911456647,
stop,sst_images/Right_Arrow.bmp,sst_images/Stop_Arrow.bmp,none,815,None,0,19,19,19,,None,1,,stop,0.2,0.815,1.8149999999999997,037,Scanner,R,1,2019_Aug_23_1226,SST,3.0.7,24.003230911456647,
go,sst_images/Left_Arrow.bmp,None,1,917,None,0,20,20,20,,1,1,0.462981935008429,go,0.2,0.917,1.917,037,Scanner,R,1,2019_Aug_23_1226,SST,3.0.7,24.003230911456647,
go,sst_images/Left_Arrow.bmp,None,1,903,None,0,21,21,21,,1,1,0.5420074839785229,go,0.2,0.903,1.903,037,Scanner,R,1,2019_Aug_23_1226,SST,3.0.7,24.003230911456647,
go,sst_images/Right_Arrow.bmp,None,2,1035,None,0,22,22,22,,2,1,0.37833778699859977,go,0.2,1.035,2.035,037,Scanner,R,1,2019_Aug_23_1226,SST,3.0.7,24.003230911456647,
go,sst_images/Left_Arrow.bmp,None,1,1485,None,0,23,23,23,,1,1,0.506097678997321,go,0.2,1.485,2.4850000000000003,037,Scanner,R,1,2019_Aug_23_1226,SST,3.0.7,24.003230911456647,
go,sst_images/Right_Arrow.bmp,None,2,1274,None,0,24,24,24,,2,1,0.41920029901666567,go,0.2,1.274,2.274,037,Scanner,R,1,2019_Aug_23_1226,SST,3.0.7,24.003230911456647,
go,sst_images/Left_Arrow.bmp,None,1,749,None,0,25,25,25,,1,1,0.4989727619977202,go,0.2,0.749,1.749,037,Scanner,R,1,2019_Aug_23_1226,SST,3.0.7,24.003230911456647,
go,sst_images/Right_Arrow.bmp,None,2,711,None,0,26,26,26,,2,1,0.5442628340097144,go,0.2,0.711,1.7109999999999999,037,Scanner,R,1,2019_Aug_23_1226,SST,3.0.7,24.003230911456647,
go,sst_images/Right_Arrow.bmp,None,2,738,None,0,27,27,27,,2,1,0.5451324939785991,go,0.2,0.738,1.738,037,Scanner,R,1,2019_Aug_23_1226,SST,3.0.7,24.003230911456647,
go,sst_images/Left_Arrow.bmp,None,1,881,None,0,28,28,28,,1,1,0.5060707889788318,go,0.2,0.881,1.881,037,Scanner,R,1,2019_Aug_23_1226,SST,3.0.7,24.003230911456647,
stop,sst_images/Left_Arrow.bmp,sst_images/Stop_Arrow.bmp,none,837,None,0,29,29,29,,1,0,0.45047572601470165,stop,0.15000000000000002,0.837,1.8865242739852983,037,Scanner,R,1,2019_Aug_23_1226,SST,3.0.7,24.003230911456647,
go,sst_images/Right_Arrow.bmp,None,2,702,None,0,30,30,30,,2,1,0.41957869302132167,go,0.15000000000000002,0.702,1.702,037,Scanner,R,1,2019_Aug_23_1226,SST,3.0.7,24.003230911456647,
go,sst_images/Right_Arrow.bmp,None,2,793,None,0,31,31,31,,2,1,0.5028452889819164,go,0.15000000000000002,0.793,1.7930000000000001,037,Scanner,R,1,2019_Aug_23_1226,SST,3.0.7,24.003230911456647,
stop,sst_images/Right_Arrow.bmp,sst_images/Stop_Arrow.bmp,none,768,None,0,32,32,32,,None,1,,stop,0.2,0.768,1.768,037,Scanner,R,1,2019_Aug_23_1226,SST,3.0.7,24.003230911456647,
go,sst_images/Left_Arrow.bmp,None,1,741,None,0,33,33,33,,1,1,0.46254015498561785,go,0.2,0.741,1.741,037,Scanner,R,1,2019_Aug_23_1226,SST,3.0.7,24.003230911456647,
go,sst_images/Right_Arrow.bmp,None,2,788,None,0,34,34,34,,2,1,0.5865745450137183,go,0.2,0.788,1.788,037,Scanner,R,1,2019_Aug_23_1226,SST,3.0.7,24.003230911456647,
go,sst_images/Left_Arrow.bmp,None,1,907,None,0,35,35,35,,1,1,0.4834100019943435,go,0.2,0.907,1.907,037,Scanner,R,1,2019_Aug_23_1226,SST,3.0.7,24.003230911456647,
go,sst_images/Left_Arrow.bmp,None,1,966,None,0,36,36,36,,2,0,0.4854085679980926,go,0.2,0.966,1.966,037,Scanner,R,1,2019_Aug_23_1226,SST,3.0.7,24.003230911456647,
go,sst_images/Right_Arrow.bmp,None,2,927,None,0,37,37,37,,2,1,0.42091607899055816,go,0.2,0.927,1.927,037,Scanner,R,1,2019_Aug_23_1226,SST,3.0.7,24.003230911456647,
go,sst_images/Right_Arrow.bmp,None,2,813,None,0,38,38,38,,2,1,0.5049580269842409,go,0.2,0.813,1.813,037,Scanner,R,1,2019_Aug_23_1226,SST,3.0.7,24.003230911456647,
go,sst_images/Left_Arrow.bmp,None,1,1048,None,0,39,39,39,,1,1,0.5894349190057255,go,0.2,1.048,2.048,037,Scanner,R,1,2019_Aug_23_1226,SST,3.0.7,24.003230911456647,
go,sst_images/Left_Arrow.bmp,None,1,891,None,0,40,40,40,,1,1,0.6287738580140285,go,0.2,0.891,1.891,037,Scanner,R,1,2019_Aug_23_1226,SST,3.0.7,24.003230911456647,
go,sst_images/Right_Arrow.bmp,None,2,1461,None,0,41,41,41,,2,1,0.4212222099886276,go,0.2,1.461,2.4610000000000003,037,Scanner,R,1,2019_Aug_23_1226,SST,3.0.7,24.003230911456647,
go,sst_images/Left_Arrow.bmp,None,1,785,None,0,42,42,42,,1,1,0.5462644700019155,go,0.2,0.785,1.7850000000000001,037,Scanner,R,1,2019_Aug_23_1226,SST,3.0.7,24.003230911456647,
go,sst_images/Left_Arrow.bmp,None,1,1035,None,0,43,43,43,,1,1,0.6701608770235907,go,0.2,1.035,2.035,037,Scanner,R,1,2019_Aug_23_1226,SST,3.0.7,24.003230911456647,
go,sst_images/Right_Arrow.bmp,None,2,765,None,0,44,44,44,,2,1,0.5045004950079601,go,0.2,0.765,1.7650000000000001,037,Scanner,R,1,2019_Aug_23_1226,SST,3.0.7,24.003230911456647,
go,sst_images/Right_Arrow.bmp,None,2,736,None,0,45,45,45,,2,1,0.5480822499957867,go,0.2,0.736,1.736,037,Scanner,R,1,2019_Aug_23_1226,SST,3.0.7,24.003230911456647,
go,sst_images/Right_Arrow.bmp,None,2,715,None,0,46,46,46,,2,1,0.7550213090144098,go,0.2,0.715,1.7149999999999999,037,Scanner,R,1,2019_Aug_23_1226,SST,3.0.7,24.003230911456647,
go,sst_images/Left_Arrow.bmp,None,1,958,None,0,47,47,47,,1,1,0.7127249340119306,go,0.2,0.958,1.958,037,Scanner,R,1,2019_Aug_23_1226,SST,3.0.7,24.003230911456647,
go,sst_images/Left_Arrow.bmp,None,1,1245,None,0,48,48,48,,1,1,0.5823267289961223,go,0.2,1.245,2.245,037,Scanner,R,1,2019_Aug_23_1226,SST,3.0.7,24.003230911456647,
go,sst_images/Left_Arrow.bmp,None,1,1016,None,0,49,49,49,,1,1,0.5855311790073756,go,0.2,1.016,2.016,037,Scanner,R,1,2019_Aug_23_1226,SST,3.0.7,24.003230911456647,
go,sst_images/Right_Arrow.bmp,None,2,850,None,0,50,50,50,,2,1,0.5452034430054482,go,0.2,0.85,1.85,037,Scanner,R,1,2019_Aug_23_1226,SST,3.0.7,24.003230911456647,
go,sst_images/Right_Arrow.bmp,None,2,853,None,0,51,51,51,,2,1,0.5853539559757337,go,0.2,0.853,1.853,037,Scanner,R,1,2019_Aug_23_1226,SST,3.0.7,24.003230911456647,
stop,sst_images/Right_Arrow.bmp,sst_images/Stop_Arrow.bmp,none,840,None,0,52,52,52,,None,1,,stop,0.25,0.84,1.8399999999999999,037,Scanner,R,1,2019_Aug_23_1226,SST,3.0.7,24.003230911456647,
go,sst_images/Left_Arrow.bmp,None,1,927,None,0,53,53,53,,1,1,0.6281005369964987,go,0.25,0.927,1.927,037,Scanner,R,1,2019_Aug_23_1226,SST,3.0.7,24.003230911456647,
go,sst_images/Left_Arrow.bmp,None,1,710,None,0,54,54,54,,None,0,,go,0.25,0.71,1.71,037,Scanner,R,1,2019_Aug_23_1226,SST,3.0.7,24.003230911456647,
go,sst_images/Left_Arrow.bmp,None,1,775,None,0,55,55,55,,1,1,0.6722218659997452,go,0.25,0.775,1.775,037,Scanner,R,1,2019_Aug_23_1226,SST,3.0.7,24.003230911456647,
stop,sst_images/Left_Arrow.bmp,sst_images/Stop_Arrow.bmp,none,790,None,0,56,56,56,,None,1,,stop,0.3,0.79,1.79,037,Scanner,R,1,2019_Aug_23_1226,SST,3.0.7,24.003230911456647,
go,sst_images/Right_Arrow.bmp,None,2,772,None,0,57,57,57,,2,1,0.4630920240015257,go,0.3,0.772,1.772,037,Scanner,R,1,2019_Aug_23_1226,SST,3.0.7,24.003230911456647,
go,sst_images/Left_Arrow.bmp,None,1,865,None,0,58,58,58,,1,1,0.5875170709914528,go,0.3,0.865,1.865,037,Scanner,R,1,2019_Aug_23_1226,SST,3.0.7,24.003230911456647,
go,sst_images/Left_Arrow.bmp,None,1,725,None,0,59,59,59,,1,1,0.5460882659826893,go,0.3,0.725,1.725,037,Scanner,R,1,2019_Aug_23_1226,SST,3.0.7,24.003230911456647,
go,sst_images/Right_Arrow.bmp,None,2,815,None,0,60,60,60,,2,1,0.5050272819935344,go,0.3,0.815,1.815,037,Scanner,R,1,2019_Aug_23_1226,SST,3.0.7,24.003230911456647,
go,sst_images/Right_Arrow.bmp,None,2,941,None,0,61,61,61,,2,1,0.5032697059796192,go,0.3,0.941,1.9409999999999998,037,Scanner,R,1,2019_Aug_23_1226,SST,3.0.7,24.003230911456647,
go,sst_images/Left_Arrow.bmp,None,1,988,None,0,62,62,62,,1,1,0.4988907549995929,go,0.3,0.988,1.988,037,Scanner,R,1,2019_Aug_23_1226,SST,3.0.7,24.003230911456647,
go,sst_images/Right_Arrow.bmp,None,2,1032,None,0,63,63,63,,2,1,0.5437320340133738,go,0.3,1.032,2.032,037,Scanner,R,1,2019_Aug_23_1226,SST,3.0.7,24.003230911456647,
stop,sst_images/Right_Arrow.bmp,sst_images/Stop_Arrow.bmp,none,1242,None,0,64,64,64,,None,1,,stop,0.35,1.242,2.242,037,Scanner,R,1,2019_Aug_23_1226,SST,3.0.7,24.003230911456647,
go,sst_images/Left_Arrow.bmp,None,1,768,None,0,65,65,65,,1,1,0.5100372440065257,go,0.35,0.768,1.768,037,Scanner,R,1,2019_Aug_23_1226,SST,3.0.7,24.003230911456647,
go,sst_images/Right_Arrow.bmp,None,2,839,None,0,66,66,66,,2,1,0.4587682250130456,go,0.35,0.839,1.839,037,Scanner,R,1,2019_Aug_23_1226,SST,3.0.7,24.003230911456647,
go,sst_images/Right_Arrow.bmp,None,2,900,None,0,67,67,67,,2,1,0.4595728050044272,go,0.35,0.9,1.9,037,Scanner,R,1,2019_Aug_23_1226,SST,3.0.7,24.003230911456647,
go,sst_images/Left_Arrow.bmp,None,1,701,None,0,68,68,68,,1,1,0.5045210430107545,go,0.35,0.701,1.701,037,Scanner,R,1,2019_Aug_23_1226,SST,3.0.7,24.003230911456647,
go,sst_images/Right_Arrow.bmp,None,2,730,None,0,69,69,69,,2,1,0.4191083209880162,go,0.35,0.73,1.73,037,Scanner,R,1,2019_Aug_23_1226,SST,3.0.7,24.003230911456647,
go,sst_images/Left_Arrow.bmp,None,1,1119,None,0,70,70,70,,1,1,0.46259066302445717,go,0.35,1.119,2.1189999999999998,037,Scanner,R,1,2019_Aug_23_1226,SST,3.0.7,24.003230911456647,
go,sst_images/Right_Arrow.bmp,None,2,912,None,0,71,71,71,,2,1,0.41698459099279717,go,0.35,0.912,1.912,037,Scanner,R,1,2019_Aug_23_1226,SST,3.0.7,24.003230911456647,
go,sst_images/Left_Arrow.bmp,None,1,758,None,0,72,72,72,,1,1,0.5440812949964311,go,0.35,0.758,1.758,037,Scanner,R,1,2019_Aug_23_1226,SST,3.0.7,24.003230911456647,
go,sst_images/Right_Arrow.bmp,None,2,960,None,0,73,73,73,,2,1,0.4604827879811637,go,0.35,0.96,1.96,037,Scanner,R,1,2019_Aug_23_1226,SST,3.0.7,24.003230911456647,
go,sst_images/Right_Arrow.bmp,None,2,859,None,0,74,74,74,,1,0,0.5449144419981167,go,0.35,0.859,1.859,037,Scanner,R,1,2019_Aug_23_1226,SST,3.0.7,24.003230911456647,
stop,sst_images/Left_Arrow.bmp,sst_images/Stop_Arrow.bmp,none,793,None,0,75,75,75,,1,0,0.5902151940099429,stop,0.3,0.793,1.8527848059900573,037,Scanner,R,1,2019_Aug_23_1226,SST,3.0.7,24.003230911456647,
go,sst_images/Left_Arrow.bmp,None,1,755,None,0,76,76,76,,1,1,0.6279998630052432,go,0.3,0.755,1.755,037,Scanner,R,1,2019_Aug_23_1226,SST,3.0.7,24.003230911456647,
go,sst_images/Left_Arrow.bmp,None,1,864,None,0,77,77,77,,1,1,0.5035354720021132,go,0.3,0.864,1.8639999999999999,037,Scanner,R,1,2019_Aug_23_1226,SST,3.0.7,24.003230911456647,
go,sst_images/Right_Arrow.bmp,None,2,725,None,0,78,78,78,,2,1,0.5005538789846469,go,0.3,0.725,1.725,037,Scanner,R,1,2019_Aug_23_1226,SST,3.0.7,24.003230911456647,
go,sst_images/Right_Arrow.bmp,None,2,766,None,0,79,79,79,,2,1,0.583404064993374,go,0.3,0.766,1.766,037,Scanner,R,1,2019_Aug_23_1226,SST,3.0.7,24.003230911456647,
go,sst_images/Right_Arrow.bmp,None,2,1787,None,0,80,80,80,,2,1,0.5462946080078837,go,0.3,1.787,2.787,037,Scanner,R,1,2019_Aug_23_1226,SST,3.0.7,24.003230911456647,
stop,sst_images/Right_Arrow.bmp,sst_images/Stop_Arrow.bmp,none,766,None,0,81,81,81,,2,0,0.5669204349978827,stop,0.25,0.766,1.7990795650021174,037,Scanner,R,1,2019_Aug_23_1226,SST,3.0.7,24.003230911456647,
go,sst_images/Left_Arrow.bmp,None,1,750,None,0,82,82,82,,1,1,0.5465929030033294,go,0.25,0.75,1.75,037,Scanner,R,1,2019_Aug_23_1226,SST,3.0.7,24.003230911456647,
go,sst_images/Left_Arrow.bmp,None,1,961,None,0,83,83,83,,1,1,0.8008751659945119,go,0.25,0.961,1.9609999999999999,037,Scanner,R,1,2019_Aug_23_1226,SST,3.0.7,24.003230911456647,
go,sst_images/Right_Arrow.bmp,None,2,1652,None,0,84,84,84,,2,1,0.5461751309921965,go,0.25,1.652,2.652,037,Scanner,R,1,2019_Aug_23_1226,SST,3.0.7,24.003230911456647,
go,sst_images/Left_Arrow.bmp,None,1,748,None,0,85,85,85,,1,1,0.5896763970085885,go,0.25,0.748,1.748,037,Scanner,R,1,2019_Aug_23_1226,SST,3.0.7,24.003230911456647,
go,sst_images/Right_Arrow.bmp,None,2,716,None,0,86,86,86,,2,1,0.5458703409822192,go,0.25,0.716,1.716,037,Scanner,R,1,2019_Aug_23_1226,SST,3.0.7,24.003230911456647,
stop,sst_images/Right_Arrow.bmp,sst_images/Stop_Arrow.bmp,none,912,None,0,87,87,87,,2,0,0.5692893459927291,stop,0.2,0.912,1.892710654007271,037,Scanner,R,1,2019_Aug_23_1226,SST,3.0.7,24.003230911456647,
go,sst_images/Left_Arrow.bmp,None,1,770,None,0,88,88,88,,1,1,0.5460122200020123,go,0.2,0.77,1.77,037,Scanner,R,1,2019_Aug_23_1226,SST,3.0.7,24.003230911456647,
go,sst_images/Right_Arrow.bmp,None,2,815,None,0,89,89,89,,2,1,0.5045289149857126,go,0.2,0.815,1.815,037,Scanner,R,1,2019_Aug_23_1226,SST,3.0.7,24.003230911456647,
go,sst_images/Left_Arrow.bmp,None,1,781,None,0,90,90,90,,1,1,0.6296994430013001,go,0.2,0.781,1.7810000000000001,037,Scanner,R,1,2019_Aug_23_1226,SST,3.0.7,24.003230911456647,
go,sst_images/Left_Arrow.bmp,None,1,904,None,0,91,91,91,,1,1,0.6289915310044307,go,0.2,0.904,1.904,037,Scanner,R,1,2019_Aug_23_1226,SST,3.0.7,24.003230911456647,
go,sst_images/Left_Arrow.bmp,None,1,1581,None,0,92,92,92,,1,1,0.5856690609944053,go,0.2,1.581,2.581,037,Scanner,R,1,2019_Aug_23_1226,SST,3.0.7,24.003230911456647,
go,sst_images/Right_Arrow.bmp,None,2,709,None,0,93,93,93,,2,1,0.3770326660014689,go,0.2,0.709,1.709,037,Scanner,R,1,2019_Aug_23_1226,SST,3.0.7,24.003230911456647,
go,sst_images/Left_Arrow.bmp,None,1,829,None,0,94,94,94,,1,1,0.5454029520042241,go,0.2,0.829,1.829,037,Scanner,R,1,2019_Aug_23_1226,SST,3.0.7,24.003230911456647,
stop,sst_images/Left_Arrow.bmp,sst_images/Stop_Arrow.bmp,none,796,None,0,95,95,95,,None,1,,stop,0.25,0.796,1.796,037,Scanner,R,1,2019_Aug_23_1226,SST,3.0.7,24.003230911456647,
go,sst_images/Right_Arrow.bmp,None,2,728,None,0,96,96,96,,2,1,0.5456350079912227,go,0.25,0.728,1.728,037,Scanner,R,1,2019_Aug_23_1226,SST,3.0.7,24.003230911456647,
go,sst_images/Right_Arrow.bmp,None,2,1066,None,0,97,97,97,,2,1,0.546216123009799,go,0.25,1.066,2.066,037,Scanner,R,1,2019_Aug_23_1226,SST,3.0.7,24.003230911456647,
stop,sst_images/Right_Arrow.bmp,sst_images/Stop_Arrow.bmp,none,1038,None,0,98,98,98,,2,0,0.5280236249964219,stop,0.2,1.038,2.059976375003578,037,Scanner,R,1,2019_Aug_23_1226,SST,3.0.7,24.003230911456647,
go,sst_images/Left_Arrow.bmp,None,1,707,None,0,99,99,99,,1,1,0.670734645012999,go,0.2,0.707,1.7069999999999999,037,Scanner,R,1,2019_Aug_23_1226,SST,3.0.7,24.003230911456647,
go,sst_images/Right_Arrow.bmp,None,2,917,None,0,100,100,100,,2,1,0.669011967984261,go,0.2,0.917,1.917,037,Scanner,R,1,2019_Aug_23_1226,SST,3.0.7,24.003230911456647,
go,sst_images/Right_Arrow.bmp,None,2,734,None,0,101,101,101,,2,1,0.4615225759916939,go,0.2,0.734,1.734,037,Scanner,R,1,2019_Aug_23_1226,SST,3.0.7,24.003230911456647,
go,sst_images/Left_Arrow.bmp,None,1,1094,None,0,102,102,102,,1,1,0.5893964020069689,go,0.2,1.094,2.0940000000000003,037,Scanner,R,1,2019_Aug_23_1226,SST,3.0.7,24.003230911456647,
stop,sst_images/Right_Arrow.bmp,sst_images/Stop_Arrow.bmp,none,764,None,0,103,103,103,,2,0,0.5324764490069356,stop,0.15000000000000002,0.764,1.7315235509930644,037,Scanner,R,1,2019_Aug_23_1226,SST,3.0.7,24.003230911456647,
go,sst_images/Left_Arrow.bmp,None,1,931,None,0,104,104,104,,1,1,0.5452613070083316,go,0.15000000000000002,0.931,1.931,037,Scanner,R,1,2019_Aug_23_1226,SST,3.0.7,24.003230911456647,
go,sst_images/Right_Arrow.bmp,None,2,981,None,0,105,105,105,,2,1,0.6277367529983167,go,0.15000000000000002,0.981,1.9809999999999999,037,Scanner,R,1,2019_Aug_23_1226,SST,3.0.7,24.003230911456647,
go,sst_images/Right_Arrow.bmp,None,2,1242,None,0,106,106,106,,2,1,0.5011339839838911,go,0.15000000000000002,1.242,2.242,037,Scanner,R,1,2019_Aug_23_1226,SST,3.0.7,24.003230911456647,
go,sst_images/Left_Arrow.bmp,None,1,712,None,0,107,107,107,,2,0,0.5449524070136249,go,0.15000000000000002,0.712,1.712,037,Scanner,R,1,2019_Aug_23_1226,SST,3.0.7,24.003230911456647,
stop,sst_images/Left_Arrow.bmp,sst_images/Stop_Arrow.bmp,none,788,None,0,108,108,108,,None,1,,stop,0.2,0.788,1.788,037,Scanner,R,1,2019_Aug_23_1226,SST,3.0.7,24.003230911456647,
go,sst_images/Right_Arrow.bmp,None,2,805,None,0,109,109,109,,2,1,0.5844983569986653,go,0.2,0.805,1.8050000000000002,037,Scanner,R,1,2019_Aug_23_1226,SST,3.0.7,24.003230911456647,
go,sst_images/Left_Arrow.bmp,None,1,767,None,0,110,110,110,,1,1,0.5480774560128339,go,0.2,0.767,1.767,037,Scanner,R,1,2019_Aug_23_1226,SST,3.0.7,24.003230911456647,
go,sst_images/Right_Arrow.bmp,None,2,961,None,0,111,111,111,,2,1,0.42047127801924944,go,0.2,0.961,1.9609999999999999,037,Scanner,R,1,2019_Aug_23_1226,SST,3.0.7,24.003230911456647,
stop,sst_images/Left_Arrow.bmp,sst_images/Stop_Arrow.bmp,none,708,None,0,112,112,112,,1,0,0.48858629900496453,stop,0.15000000000000002,0.708,1.7194137009950354,037,Scanner,R,1,2019_Aug_23_1226,SST,3.0.7,24.003230911456647,
go,sst_images/Left_Arrow.bmp,None,1,716,None,0,113,113,113,,2,0,0.5042355070181657,go,0.15000000000000002,0.716,1.716,037,Scanner,R,1,2019_Aug_23_1226,SST,3.0.7,24.003230911456647,
go,sst_images/Right_Arrow.bmp,None,2,776,None,0,114,114,114,,2,1,0.4975936599948909,go,0.15000000000000002,0.776,1.776,037,Scanner,R,1,2019_Aug_23_1226,SST,3.0.7,24.003230911456647,
go,sst_images/Left_Arrow.bmp,None,1,705,None,0,115,115,115,,1,1,0.7089895270182751,go,0.15000000000000002,0.705,1.705,037,Scanner,R,1,2019_Aug_23_1226,SST,3.0.7,24.003230911456647,
go,sst_images/Right_Arrow.bmp,None,2,717,None,0,116,116,116,,2,1,0.5843653609917965,go,0.15000000000000002,0.717,1.717,037,Scanner,R,1,2019_Aug_23_1226,SST,3.0.7,24.003230911456647,
stop,sst_images/Right_Arrow.bmp,sst_images/Stop_Arrow.bmp,none,834,None,0,117,117,117,,None,1,,stop,0.2,0.834,1.8339999999999999,037,Scanner,R,1,2019_Aug_23_1226,SST,3.0.7,24.003230911456647,
go,sst_images/Left_Arrow.bmp,None,1,737,None,0,118,118,118,,1,1,0.50314947401057,go,0.2,0.737,1.737,037,Scanner,R,1,2019_Aug_23_1226,SST,3.0.7,24.003230911456647,
go,sst_images/Right_Arrow.bmp,None,2,878,None,0,119,119,119,,2,1,0.5708834590041079,go,0.2,0.878,1.8780000000000001,037,Scanner,R,1,2019_Aug_23_1226,SST,3.0.7,24.003230911456647,
go,sst_images/Left_Arrow.bmp,None,1,731,None,0,120,120,120,,1,1,0.5453018780099228,go,0.2,0.731,1.7309999999999999,037,Scanner,R,1,2019_Aug_23_1226,SST,3.0.7,24.003230911456647,
go,sst_images/Right_Arrow.bmp,None,2,916,None,0,121,121,121,,2,1,0.5243175840005279,go,0.2,0.916,1.916,037,Scanner,R,1,2019_Aug_23_1226,SST,3.0.7,24.003230911456647,
go,sst_images/Right_Arrow.bmp,None,2,791,None,0,122,122,122,,2,1,0.5039330850122496,go,0.2,0.791,1.791,037,Scanner,R,1,2019_Aug_23_1226,SST,3.0.7,24.003230911456647,
stop,sst_images/Left_Arrow.bmp,sst_images/Stop_Arrow.bmp,none,817,None,0,123,123,123,,None,1,,stop,0.25,0.817,1.817,037,Scanner,R,1,2019_Aug_23_1226,SST,3.0.7,24.003230911456647,
go,sst_images/Left_Arrow.bmp,None,1,800,None,0,124,124,124,,1,1,0.7974390150047839,go,0.25,0.8,1.8,037,Scanner,R,1,2019_Aug_23_1226,SST,3.0.7,24.003230911456647,
go,sst_images/Left_Arrow.bmp,None,1,1212,None,0,125,125,125,,1,1,0.6243471699999645,go,0.25,1.212,2.2119999999999997,037,Scanner,R,1,2019_Aug_23_1226,SST,3.0.7,24.003230911456647,
go,sst_images/Left_Arrow.bmp,None,1,837,None,0,126,126,126,,1,1,0.5423929679964203,go,0.25,0.837,1.837,037,Scanner,R,1,2019_Aug_23_1226,SST,3.0.7,24.003230911456647,
go,sst_images/Right_Arrow.bmp,None,2,719,None,0,127,127,127,,2,1,0.5460430090024602,go,0.25,0.719,1.7189999999999999,037,Scanner,R,1,2019_Aug_23_1226,SST,3.0.7,24.003230911456647,
go,sst_images/Left_Arrow.bmp,None,1,712,None,0,128,128,128,,1,1,0.5880300349963363,go,0.25,0.712,1.712,037,Scanner,R,1,2019_Aug_23_1226,SST,3.0.7,24.003230911456647,
stop,sst_images/Left_Arrow.bmp,sst_images/Stop_Arrow.bmp,none,988,None,0,129,129,129,,1,0,0.5727585189742967,stop,0.2,0.988,1.9652414810257033,037,Scanner,R,1,2019_Aug_23_1226,SST,3.0.7,24.003230911456647,
go,sst_images/Left_Arrow.bmp,None,1,756,None,0,130,130,130,,1,1,0.5877931860159151,go,0.2,0.756,1.756,037,Scanner,R,1,2019_Aug_23_1226,SST,3.0.7,24.003230911456647,
go,sst_images/Left_Arrow.bmp,None,1,849,None,0,131,131,131,,1,1,0.58072539998102,go,0.2,0.849,1.849,037,Scanner,R,1,2019_Aug_23_1226,SST,3.0.7,24.003230911456647,
go,sst_images/Right_Arrow.bmp,None,2,1038,None,0,132,132,132,,2,1,0.5416203829809092,go,0.2,1.038,2.0380000000000003,037,Scanner,R,1,2019_Aug_23_1226,SST,3.0.7,24.003230911456647,
go,sst_images/Left_Arrow.bmp,None,1,1119,None,0,133,133,133,,1,1,0.5858668939908966,go,0.2,1.119,2.1189999999999998,037,Scanner,R,1,2019_Aug_23_1226,SST,3.0.7,24.003230911456647,
go,sst_images/Left_Arrow.bmp,None,1,712,None,0,134,134,134,,2,0,0.42141708900453523,go,0.2,0.712,1.712,037,Scanner,R,1,2019_Aug_23_1226,SST,3.0.7,24.003230911456647,
go,sst_images/Right_Arrow.bmp,None,2,746,None,0,135,135,135,,None,0,,go,0.2,0.746,1.746,037,Scanner,R,1,2019_Aug_23_1226,SST,3.0.7,24.003230911456647,
stop,sst_images/Right_Arrow.bmp,sst_images/Stop_Arrow.bmp,none,1652,None,0,136,136,136,,None,1,,stop,0.25,1.652,2.6519999999999997,037,Scanner,R,1,2019_Aug_23_1226,SST,3.0.7,24.003230911456647,
go,sst_images/Right_Arrow.bmp,None,2,1432,None,0,137,137,137,,2,1,0.6283978409774136,go,0.25,1.432,2.432,037,Scanner,R,1,2019_Aug_23_1226,SST,3.0.7,24.003230911456647,
go,sst_images/Left_Arrow.bmp,None,1,724,None,0,138,138,138,,1,1,0.5464489540026989,go,0.25,0.724,1.724,037,Scanner,R,1,2019_Aug_23_1226,SST,3.0.7,24.003230911456647,
go,sst_images/Right_Arrow.bmp,None,2,1030,None,0,139,139,139,,2,1,0.5876295430061873,go,0.25,1.03,2.0300000000000002,037,Scanner,R,1,2019_Aug_23_1226,SST,3.0.7,24.003230911456647,
go,sst_images/Left_Arrow.bmp,None,1,752,None,0,140,140,140,,1,1,0.4625500749971252,go,0.25,0.752,1.752,037,Scanner,R,1,2019_Aug_23_1226,SST,3.0.7,24.003230911456647,
stop,sst_images/Left_Arrow.bmp,sst_images/Stop_Arrow.bmp,none,741,None,0,141,141,141,,2,0,0.5031705430010334,stop,0.2,0.741,1.7878294569989668,037,Scanner,R,1,2019_Aug_23_1226,SST,3.0.7,24.003230911456647,
go,sst_images/Left_Arrow.bmp,None,1,754,None,0,142,142,142,,None,0,,go,0.2,0.754,1.754,037,Scanner,R,1,2019_Aug_23_1226,SST,3.0.7,24.003230911456647,
go,sst_images/Right_Arrow.bmp,None,2,835,None,0,143,143,143,,2,1,0.5833260890212841,go,0.2,0.835,1.835,037,Scanner,R,1,2019_Aug_23_1226,SST,3.0.7,24.003230911456647,
go,sst_images/Left_Arrow.bmp,None,1,796,None,0,144,144,144,,1,1,0.5447494499967434,go,0.2,0.796,1.796,037,Scanner,R,1,2019_Aug_23_1226,SST,3.0.7,24.003230911456647,
go,sst_images/Right_Arrow.bmp,None,2,834,None,0,145,145,145,,2,1,0.5042137810087297,go,0.2,0.834,1.834,037,Scanner,R,1,2019_Aug_23_1226,SST,3.0.7,24.003230911456647,
stop,sst_images/Right_Arrow.bmp,sst_images/Stop_Arrow.bmp,none,975,None,0,146,146,146,,None,1,,stop,0.25,0.975,1.9749999999999999,037,Scanner,R,1,2019_Aug_23_1226,SST,3.0.7,24.003230911456647,
go,sst_images/Left_Arrow.bmp,None,1,851,None,0,147,147,147,,1,1,0.6710046929947566,go,0.25,0.851,1.851,037,Scanner,R,1,2019_Aug_23_1226,SST,3.0.7,24.003230911456647,
go,sst_images/Right_Arrow.bmp,None,2,817,None,0,148,148,148,,2,1,0.5037366619799286,go,0.25,0.817,1.817,037,Scanner,R,1,2019_Aug_23_1226,SST,3.0.7,24.003230911456647,
stop,sst_images/Right_Arrow.bmp,sst_images/Stop_Arrow.bmp,none,746,None,0,149,149,149,,2,0,0.5718552559847012,stop,0.2,0.746,1.7241447440152988,037,Scanner,R,1,2019_Aug_23_1226,SST,3.0.7,24.003230911456647,
go,sst_images/Right_Arrow.bmp,None,2,762,None,0,150,150,150,,2,1,0.7541318400180899,go,0.2,0.762,1.762,037,Scanner,R,1,2019_Aug_23_1226,SST,3.0.7,24.003230911456647,
go,sst_images/Left_Arrow.bmp,None,1,782,None,0,151,151,151,,1,1,0.5834114409808535,go,0.2,0.782,1.782,037,Scanner,R,1,2019_Aug_23_1226,SST,3.0.7,24.003230911456647,
go,sst_images/Right_Arrow.bmp,None,2,1001,None,0,152,152,152,,2,1,0.5461199760029558,go,0.2,1.001,2.001,037,Scanner,R,1,2019_Aug_23_1226,SST,3.0.7,24.003230911456647,
go,sst_images/Left_Arrow.bmp,None,1,944,None,0,153,153,153,,1,1,0.5460374779941048,go,0.2,0.944,1.944,037,Scanner,R,1,2019_Aug_23_1226,SST,3.0.7,24.003230911456647,
go,sst_images/Right_Arrow.bmp,None,2,1108,None,0,154,154,154,,2,1,0.5045930909982417,go,0.2,1.108,2.108,037,Scanner,R,1,2019_Aug_23_1226,SST,3.0.7,24.003230911456647,
go,sst_images/Left_Arrow.bmp,None,1,827,None,0,155,155,155,,1,1,0.45764014398446307,go,0.2,0.827,1.827,037,Scanner,R,1,2019_Aug_23_1226,SST,3.0.7,24.003230911456647,
stop,sst_images/Left_Arrow.bmp,sst_images/Stop_Arrow.bmp,none,756,None,0,156,156,156,,None,1,,stop,0.25,0.756,1.756,037,Scanner,R,1,2019_Aug_23_1226,SST,3.0.7,24.003230911456647,
go,sst_images/Right_Arrow.bmp,None,2,732,None,0,157,157,157,,2,1,0.5471491699863691,go,0.25,0.732,1.732,037,Scanner,R,1,2019_Aug_23_1226,SST,3.0.7,24.003230911456647,
go,sst_images/Left_Arrow.bmp,None,1,1708,None,0,158,158,158,,1,1,0.5455126689921599,go,0.25,1.708,2.708,037,Scanner,R,1,2019_Aug_23_1226,SST,3.0.7,24.003230911456647,
go,sst_images/Left_Arrow.bmp,None,1,1080,None,0,159,159,159,,1,1,0.7132492450182326,go,0.25,1.08,2.08,037,Scanner,R,1,2019_Aug_23_1226,SST,3.0.7,24.003230911456647,
go,sst_images/Right_Arrow.bmp,None,2,1020,None,0,160,160,160,,2,1,0.7958118589885999,go,0.25,1.02,2.02,037,Scanner,R,1,2019_Aug_23_1226,SST,3.0.7,24.003230911456647,
go,sst_images/Left_Arrow.bmp,None,1,712,None,0,161,161,161,,1,1,0.5427604510041419,go,0.25,0.712,1.712,037,Scanner,R,1,2019_Aug_23_1226,SST,3.0.7,24.003230911456647,
go,sst_images/Right_Arrow.bmp,None,2,823,None,0,162,162,162,,2,1,0.5038768789963797,go,0.25,0.823,1.823,037,Scanner,R,1,2019_Aug_23_1226,SST,3.0.7,24.003230911456647,
go,sst_images/Right_Arrow.bmp,None,2,765,None,0,163,163,163,,2,1,0.6278599800134543,go,0.25,0.765,1.7650000000000001,037,Scanner,R,1,2019_Aug_23_1226,SST,3.0.7,24.003230911456647,
stop,sst_images/Left_Arrow.bmp,sst_images/Stop_Arrow.bmp,none,752,None,0,164,164,164,,1,0,0.5280185400042683,stop,0.2,0.752,1.7739814599957318,037,Scanner,R,1,2019_Aug_23_1226,SST,3.0.7,24.003230911456647,
go,sst_images/Right_Arrow.bmp,None,2,802,None,0,165,165,165,,2,1,0.5437785719987005,go,0.2,0.802,1.802,037,Scanner,R,1,2019_Aug_23_1226,SST,3.0.7,24.003230911456647,
go,sst_images/Left_Arrow.bmp,None,1,707,None,0,166,166,166,,1,1,0.6695508720004,go,0.2,0.707,1.7069999999999999,037,Scanner,R,1,2019_Aug_23_1226,SST,3.0.7,24.003230911456647,
stop,sst_images/Left_Arrow.bmp,sst_images/Stop_Arrow.bmp,none,1032,None,0,167,167,167,,None,1,,stop,0.25,1.032,2.032,037,Scanner,R,1,2019_Aug_23_1226,SST,3.0.7,24.003230911456647,
go,sst_images/Right_Arrow.bmp,None,2,925,None,0,168,168,168,,2,1,0.5435710450110491,go,0.25,0.925,1.925,037,Scanner,R,1,2019_Aug_23_1226,SST,3.0.7,24.003230911456647,
go,sst_images/Right_Arrow.bmp,None,2,729,None,0,169,169,169,,2,1,0.5003613799926825,go,0.25,0.729,1.729,037,Scanner,R,1,2019_Aug_23_1226,SST,3.0.7,24.003230911456647,
go,sst_images/Left_Arrow.bmp,None,1,769,None,0,170,170,170,,1,1,0.5906606770004146,go,0.25,0.769,1.7690000000000001,037,Scanner,R,1,2019_Aug_23_1226,SST,3.0.7,24.003230911456647,
go,sst_images/Right_Arrow.bmp,None,2,1418,None,0,171,171,171,,2,1,0.5045257650199346,go,0.25,1.418,2.418,037,Scanner,R,1,2019_Aug_23_1226,SST,3.0.7,24.003230911456647,
stop,sst_images/Right_Arrow.bmp,sst_images/Stop_Arrow.bmp,none,712,None,0,172,172,172,,None,1,,stop,0.3,0.712,1.712,037,Scanner,R,1,2019_Aug_23_1226,SST,3.0.7,24.003230911456647,
go,sst_images/Right_Arrow.bmp,None,2,937,None,0,173,173,173,,2,1,0.6716887050133664,go,0.3,0.937,1.937,037,Scanner,R,1,2019_Aug_23_1226,SST,3.0.7,24.003230911456647,
go,sst_images/Right_Arrow.bmp,None,2,716,None,0,174,174,174,,2,1,0.5895138099731412,go,0.3,0.716,1.716,037,Scanner,R,1,2019_Aug_23_1226,SST,3.0.7,24.003230911456647,
go,sst_images/Left_Arrow.bmp,None,1,708,None,0,175,175,175,,1,1,0.584266188001493,go,0.3,0.708,1.708,037,Scanner,R,1,2019_Aug_23_1226,SST,3.0.7,24.003230911456647,
go,sst_images/Right_Arrow.bmp,None,2,862,None,0,176,176,176,,2,1,0.5836161639890634,go,0.3,0.862,1.862,037,Scanner,R,1,2019_Aug_23_1226,SST,3.0.7,24.003230911456647,
go,sst_images/Left_Arrow.bmp,None,1,975,None,0,177,177,177,,1,1,0.5002424349950161,go,0.3,0.975,1.975,037,Scanner,R,1,2019_Aug_23_1226,SST,3.0.7,24.003230911456647,
go,sst_images/Right_Arrow.bmp,None,2,789,None,0,178,178,178,,2,1,0.6955023170157801,go,0.3,0.789,1.7890000000000001,037,Scanner,R,1,2019_Aug_23_1226,SST,3.0.7,24.003230911456647,
stop,sst_images/Left_Arrow.bmp,sst_images/Stop_Arrow.bmp,none,709,6630.0,0,179,179,179,,1,0,0.5873544509813655,stop,0.25,0.709,1.7216455490186346,037,Scanner,R,1,2019_Aug_23_1226,SST,3.0.7,24.003230911456647,
