trial_type,arrow_1,arrow_2,corrAns,jitter,run_end_fixation,trials.thisRepN,trials.thisTrialN,trials.thisN,trials.thisIndex,randomized TrialOrder,key_response.keys,key_response.corr,trial_t.routineEndVal,ss_delay,iti_duration,SOA,key_response.rt,participant,prac_or_scan,handedness,run,date,expName,psychopyVersion,frameRate,
go,sst_images/Left_Arrow.bmp,None,1,936,None,0,0,0,0,10,None,0,go,0.05,0.936,1.936,,037,Scanner,R,2,2019_Aug_23_1232,SST,3.0.7,23.99409380688183,
go,sst_images/Right_Arrow.bmp,None,2,708,None,0,1,1,1,,2,1,go,0.05,0.708,1.708,0.5042284189839847,037,Scanner,R,2,2019_Aug_23_1232,SST,3.0.7,23.99409380688183,
go,sst_images/Right_Arrow.bmp,None,2,728,None,0,2,2,2,,2,1,go,0.05,0.728,1.728,0.5857207289955113,037,Scanner,R,2,2019_Aug_23_1232,SST,3.0.7,23.99409380688183,
go,sst_images/Left_Arrow.bmp,None,1,940,None,0,3,3,3,,1,1,go,0.05,0.94,1.94,0.5423381919972599,037,Scanner,R,2,2019_Aug_23_1232,SST,3.0.7,23.99409380688183,
go,sst_images/Left_Arrow.bmp,None,1,778,None,0,4,4,4,,1,1,go,0.05,0.778,1.778,0.5455347780080047,037,Scanner,R,2,2019_Aug_23_1232,SST,3.0.7,23.99409380688183,
stop,sst_images/Right_Arrow.bmp,sst_images/Stop_Arrow.bmp,none,761,None,0,5,5,5,,None,1,stop,0.1,0.761,1.7610000000000001,,037,Scanner,R,2,2019_Aug_23_1232,SST,3.0.7,23.99409380688183,
go,sst_images/Right_Arrow.bmp,None,2,2000,None,0,6,6,6,,2,1,go,0.1,2.0,3.0,0.5001944650139194,037,Scanner,R,2,2019_Aug_23_1232,SST,3.0.7,23.99409380688183,
go,sst_images/Left_Arrow.bmp,None,1,746,None,0,7,7,7,,1,1,go,0.1,0.746,1.746,0.48954725297517143,037,Scanner,R,2,2019_Aug_23_1232,SST,3.0.7,23.99409380688183,
go,sst_images/Right_Arrow.bmp,None,2,1248,None,0,8,8,8,,2,1,go,0.1,1.248,2.248,0.546181418991182,037,Scanner,R,2,2019_Aug_23_1232,SST,3.0.7,23.99409380688183,
stop,sst_images/Left_Arrow.bmp,sst_images/Stop_Arrow.bmp,none,1149,None,0,9,9,9,,None,1,stop,0.15000000000000002,1.149,2.149,,037,Scanner,R,2,2019_Aug_23_1232,SST,3.0.7,23.99409380688183,
go,sst_images/Right_Arrow.bmp,None,2,754,None,0,10,10,10,,2,1,go,0.15000000000000002,0.754,1.754,0.4613742690125946,037,Scanner,R,2,2019_Aug_23_1232,SST,3.0.7,23.99409380688183,
go,sst_images/Left_Arrow.bmp,None,1,818,None,0,11,11,11,,1,1,go,0.15000000000000002,0.818,1.818,0.49787070200545713,037,Scanner,R,2,2019_Aug_23_1232,SST,3.0.7,23.99409380688183,
go,sst_images/Right_Arrow.bmp,None,2,872,None,0,12,12,12,,2,1,go,0.15000000000000002,0.872,1.8719999999999999,0.44769671800895594,037,Scanner,R,2,2019_Aug_23_1232,SST,3.0.7,23.99409380688183,
go,sst_images/Left_Arrow.bmp,None,1,807,None,0,13,13,13,,1,1,go,0.15000000000000002,0.807,1.807,0.47178896798868664,037,Scanner,R,2,2019_Aug_23_1232,SST,3.0.7,23.99409380688183,
go,sst_images/Left_Arrow.bmp,None,1,833,None,0,14,14,14,,1,1,go,0.15000000000000002,0.833,1.833,0.5875103680009488,037,Scanner,R,2,2019_Aug_23_1232,SST,3.0.7,23.99409380688183,
go,sst_images/Left_Arrow.bmp,None,1,1296,None,0,15,15,15,,1,1,go,0.15000000000000002,1.296,2.2960000000000003,0.6289460659900215,037,Scanner,R,2,2019_Aug_23_1232,SST,3.0.7,23.99409380688183,
go,sst_images/Right_Arrow.bmp,None,2,2000,None,0,16,16,16,,2,1,go,0.15000000000000002,2.0,3.0,0.46085741999559104,037,Scanner,R,2,2019_Aug_23_1232,SST,3.0.7,23.99409380688183,
go,sst_images/Left_Arrow.bmp,None,1,1001,None,0,17,17,17,,1,1,go,0.15000000000000002,1.001,2.001,0.46119746699696407,037,Scanner,R,2,2019_Aug_23_1232,SST,3.0.7,23.99409380688183,
go,sst_images/Left_Arrow.bmp,None,1,981,None,0,18,18,18,,1,1,go,0.15000000000000002,0.981,1.9809999999999999,0.6285036350018345,037,Scanner,R,2,2019_Aug_23_1232,SST,3.0.7,23.99409380688183,
go,sst_images/Right_Arrow.bmp,None,2,1158,None,0,19,19,19,,2,1,go,0.15000000000000002,1.158,2.158,0.5463492670096457,037,Scanner,R,2,2019_Aug_23_1232,SST,3.0.7,23.99409380688183,
go,sst_images/Left_Arrow.bmp,None,1,727,None,0,20,20,20,,1,1,go,0.15000000000000002,0.727,1.7269999999999999,0.5035324199998286,037,Scanner,R,2,2019_Aug_23_1232,SST,3.0.7,23.99409380688183,
go,sst_images/Right_Arrow.bmp,None,2,748,None,0,21,21,21,,2,1,go,0.15000000000000002,0.748,1.748,0.5044148210145067,037,Scanner,R,2,2019_Aug_23_1232,SST,3.0.7,23.99409380688183,
go,sst_images/Left_Arrow.bmp,None,1,971,None,0,22,22,22,,1,1,go,0.15000000000000002,0.971,1.971,0.4600861330109183,037,Scanner,R,2,2019_Aug_23_1232,SST,3.0.7,23.99409380688183,
stop,sst_images/Left_Arrow.bmp,sst_images/Stop_Arrow.bmp,none,849,None,0,23,23,23,,None,1,stop,0.2,0.849,1.849,,037,Scanner,R,2,2019_Aug_23_1232,SST,3.0.7,23.99409380688183,
go,sst_images/Right_Arrow.bmp,None,2,883,None,0,24,24,24,,2,1,go,0.2,0.883,1.883,0.4605661290115677,037,Scanner,R,2,2019_Aug_23_1232,SST,3.0.7,23.99409380688183,
go,sst_images/Right_Arrow.bmp,None,2,924,None,0,25,25,25,,2,1,go,0.2,0.924,1.924,0.581502912013093,037,Scanner,R,2,2019_Aug_23_1232,SST,3.0.7,23.99409380688183,
go,sst_images/Left_Arrow.bmp,None,1,825,None,0,26,26,26,,1,1,go,0.2,0.825,1.825,0.5867111849947833,037,Scanner,R,2,2019_Aug_23_1232,SST,3.0.7,23.99409380688183,
stop,sst_images/Right_Arrow.bmp,sst_images/Stop_Arrow.bmp,none,758,None,0,27,27,27,,2,0,stop,0.15000000000000002,0.758,1.771584502012236,0.48641549798776396,037,Scanner,R,2,2019_Aug_23_1232,SST,3.0.7,23.99409380688183,
go,sst_images/Right_Arrow.bmp,None,2,781,None,0,28,28,28,,1,0,go,0.15000000000000002,0.781,1.7810000000000001,0.5448663620045409,037,Scanner,R,2,2019_Aug_23_1232,SST,3.0.7,23.99409380688183,
go,sst_images/Right_Arrow.bmp,None,2,807,None,0,29,29,29,,2,1,go,0.15000000000000002,0.807,1.807,0.6310170240176376,037,Scanner,R,2,2019_Aug_23_1232,SST,3.0.7,23.99409380688183,
go,sst_images/Left_Arrow.bmp,None,1,960,None,0,30,30,30,,1,1,go,0.15000000000000002,0.96,1.96,0.5447135190188419,037,Scanner,R,2,2019_Aug_23_1232,SST,3.0.7,23.99409380688183,
go,sst_images/Right_Arrow.bmp,None,2,712,None,0,31,31,31,,2,1,go,0.15000000000000002,0.712,1.712,0.671114391006995,037,Scanner,R,2,2019_Aug_23_1232,SST,3.0.7,23.99409380688183,
go,sst_images/Left_Arrow.bmp,None,1,856,None,0,32,32,32,,1,1,go,0.15000000000000002,0.856,1.8559999999999999,0.547425116004888,037,Scanner,R,2,2019_Aug_23_1232,SST,3.0.7,23.99409380688183,
stop,sst_images/Right_Arrow.bmp,sst_images/Stop_Arrow.bmp,none,1026,None,0,33,33,33,,None,1,stop,0.2,1.026,2.026,,037,Scanner,R,2,2019_Aug_23_1232,SST,3.0.7,23.99409380688183,
go,sst_images/Left_Arrow.bmp,None,1,702,None,0,34,34,34,,1,1,go,0.2,0.702,1.702,0.6289046510064509,037,Scanner,R,2,2019_Aug_23_1232,SST,3.0.7,23.99409380688183,
go,sst_images/Right_Arrow.bmp,None,2,1075,None,0,35,35,35,,2,1,go,0.2,1.075,2.075,0.5828698390105274,037,Scanner,R,2,2019_Aug_23_1232,SST,3.0.7,23.99409380688183,
go,sst_images/Right_Arrow.bmp,None,2,862,None,0,36,36,36,,2,1,go,0.2,0.862,1.862,0.41954468699987046,037,Scanner,R,2,2019_Aug_23_1232,SST,3.0.7,23.99409380688183,
go,sst_images/Left_Arrow.bmp,None,1,865,None,0,37,37,37,,1,1,go,0.2,0.865,1.865,0.5058654439926613,037,Scanner,R,2,2019_Aug_23_1232,SST,3.0.7,23.99409380688183,
go,sst_images/Left_Arrow.bmp,None,1,1087,None,0,38,38,38,,1,1,go,0.2,1.087,2.0869999999999997,0.6705374390003271,037,Scanner,R,2,2019_Aug_23_1232,SST,3.0.7,23.99409380688183,
go,sst_images/Right_Arrow.bmp,None,2,841,None,0,39,39,39,,2,1,go,0.2,0.841,1.841,0.5062849810055923,037,Scanner,R,2,2019_Aug_23_1232,SST,3.0.7,23.99409380688183,
go,sst_images/Left_Arrow.bmp,None,1,718,None,0,40,40,40,,1,1,go,0.2,0.718,1.718,0.45942661399021745,037,Scanner,R,2,2019_Aug_23_1232,SST,3.0.7,23.99409380688183,
stop,sst_images/Left_Arrow.bmp,sst_images/Stop_Arrow.bmp,none,862,None,0,41,41,41,,None,1,stop,0.25,0.862,1.8619999999999999,,037,Scanner,R,2,2019_Aug_23_1232,SST,3.0.7,23.99409380688183,
go,sst_images/Left_Arrow.bmp,None,1,841,None,0,42,42,42,,1,1,go,0.25,0.841,1.841,0.8394034189986996,037,Scanner,R,2,2019_Aug_23_1232,SST,3.0.7,23.99409380688183,
go,sst_images/Right_Arrow.bmp,None,2,704,None,0,43,43,43,,2,1,go,0.25,0.704,1.704,0.4197883839951828,037,Scanner,R,2,2019_Aug_23_1232,SST,3.0.7,23.99409380688183,
go,sst_images/Right_Arrow.bmp,None,2,702,None,0,44,44,44,,2,1,go,0.25,0.702,1.702,0.5892827119969297,037,Scanner,R,2,2019_Aug_23_1232,SST,3.0.7,23.99409380688183,
stop,sst_images/Right_Arrow.bmp,sst_images/Stop_Arrow.bmp,none,714,None,0,45,45,45,,2,0,stop,0.2,0.714,1.6993188509994652,0.5646811490005348,037,Scanner,R,2,2019_Aug_23_1232,SST,3.0.7,23.99409380688183,
go,sst_images/Right_Arrow.bmp,None,2,730,None,0,46,46,46,,1,0,go,0.2,0.73,1.73,0.5878052820044104,037,Scanner,R,2,2019_Aug_23_1232,SST,3.0.7,23.99409380688183,
go,sst_images/Left_Arrow.bmp,None,1,844,None,0,47,47,47,,1,1,go,0.2,0.844,1.8439999999999999,0.5031342849833891,037,Scanner,R,2,2019_Aug_23_1232,SST,3.0.7,23.99409380688183,
stop,sst_images/Right_Arrow.bmp,sst_images/Stop_Arrow.bmp,none,719,None,0,48,48,48,,2,0,stop,0.15000000000000002,0.719,1.7374150029963347,0.4815849970036652,037,Scanner,R,2,2019_Aug_23_1232,SST,3.0.7,23.99409380688183,
go,sst_images/Left_Arrow.bmp,None,1,767,None,0,49,49,49,,1,1,go,0.15000000000000002,0.767,1.767,0.5874858769821003,037,Scanner,R,2,2019_Aug_23_1232,SST,3.0.7,23.99409380688183,
go,sst_images/Left_Arrow.bmp,None,1,856,None,0,50,50,50,,1,1,go,0.15000000000000002,0.856,1.8559999999999999,0.5453426789899822,037,Scanner,R,2,2019_Aug_23_1232,SST,3.0.7,23.99409380688183,
go,sst_images/Right_Arrow.bmp,None,2,1187,None,0,51,51,51,,2,1,go,0.15000000000000002,1.187,2.1870000000000003,0.46371918299701065,037,Scanner,R,2,2019_Aug_23_1232,SST,3.0.7,23.99409380688183,
go,sst_images/Right_Arrow.bmp,None,2,702,None,0,52,52,52,,2,1,go,0.15000000000000002,0.702,1.702,0.5821628120029345,037,Scanner,R,2,2019_Aug_23_1232,SST,3.0.7,23.99409380688183,
stop,sst_images/Left_Arrow.bmp,sst_images/Stop_Arrow.bmp,none,842,None,0,53,53,53,,None,1,stop,0.2,0.842,1.8419999999999999,,037,Scanner,R,2,2019_Aug_23_1232,SST,3.0.7,23.99409380688183,
go,sst_images/Left_Arrow.bmp,None,1,937,None,0,54,54,54,,1,1,go,0.2,0.937,1.937,0.7139402050233912,037,Scanner,R,2,2019_Aug_23_1232,SST,3.0.7,23.99409380688183,
go,sst_images/Left_Arrow.bmp,None,1,838,None,0,55,55,55,,1,1,go,0.2,0.838,1.838,0.5465799559897278,037,Scanner,R,2,2019_Aug_23_1232,SST,3.0.7,23.99409380688183,
go,sst_images/Left_Arrow.bmp,None,1,825,None,0,56,56,56,,1,1,go,0.2,0.825,1.825,0.5857544270111248,037,Scanner,R,2,2019_Aug_23_1232,SST,3.0.7,23.99409380688183,
stop,sst_images/Right_Arrow.bmp,sst_images/Stop_Arrow.bmp,none,702,None,0,57,57,57,,None,1,stop,0.25,0.702,1.702,,037,Scanner,R,2,2019_Aug_23_1232,SST,3.0.7,23.99409380688183,
go,sst_images/Right_Arrow.bmp,None,2,1286,None,0,58,58,58,,2,1,go,0.25,1.286,2.286,0.6295312820002437,037,Scanner,R,2,2019_Aug_23_1232,SST,3.0.7,23.99409380688183,
go,sst_images/Left_Arrow.bmp,None,1,758,None,0,59,59,59,,1,1,go,0.25,0.758,1.758,0.6680066970002372,037,Scanner,R,2,2019_Aug_23_1232,SST,3.0.7,23.99409380688183,
go,sst_images/Left_Arrow.bmp,None,1,993,None,0,60,60,60,,1,1,go,0.25,0.993,1.9929999999999999,0.6678118979907595,037,Scanner,R,2,2019_Aug_23_1232,SST,3.0.7,23.99409380688183,
stop,sst_images/Left_Arrow.bmp,sst_images/Stop_Arrow.bmp,none,1069,None,0,61,61,61,,1,0,stop,0.2,1.069,2.0904063979918135,0.5285936020081863,037,Scanner,R,2,2019_Aug_23_1232,SST,3.0.7,23.99409380688183,
go,sst_images/Right_Arrow.bmp,None,2,884,None,0,62,62,62,,2,1,go,0.2,0.884,1.884,0.4619741800124757,037,Scanner,R,2,2019_Aug_23_1232,SST,3.0.7,23.99409380688183,
go,sst_images/Right_Arrow.bmp,None,2,711,None,0,63,63,63,,2,1,go,0.2,0.711,1.7109999999999999,0.6308417680265848,037,Scanner,R,2,2019_Aug_23_1232,SST,3.0.7,23.99409380688183,
stop,sst_images/Right_Arrow.bmp,sst_images/Stop_Arrow.bmp,none,773,None,0,64,64,64,,1,0,stop,0.15000000000000002,0.773,1.7522191930173432,0.5207808069826569,037,Scanner,R,2,2019_Aug_23_1232,SST,3.0.7,23.99409380688183,
go,sst_images/Left_Arrow.bmp,None,1,710,None,0,65,65,65,,1,1,go,0.15000000000000002,0.71,1.71,0.6294517950154841,037,Scanner,R,2,2019_Aug_23_1232,SST,3.0.7,23.99409380688183,
go,sst_images/Right_Arrow.bmp,None,2,1035,None,0,66,66,66,,2,1,go,0.15000000000000002,1.035,2.035,0.7563128039764706,037,Scanner,R,2,2019_Aug_23_1232,SST,3.0.7,23.99409380688183,
go,sst_images/Left_Arrow.bmp,None,1,893,None,0,67,67,67,,1,1,go,0.15000000000000002,0.893,1.893,0.46141973198973574,037,Scanner,R,2,2019_Aug_23_1232,SST,3.0.7,23.99409380688183,
go,sst_images/Right_Arrow.bmp,None,2,955,None,0,68,68,68,,2,1,go,0.15000000000000002,0.955,1.955,0.7143656729895156,037,Scanner,R,2,2019_Aug_23_1232,SST,3.0.7,23.99409380688183,
go,sst_images/Right_Arrow.bmp,None,2,796,None,0,69,69,69,,1,0,go,0.15000000000000002,0.796,1.796,0.5840007929946296,037,Scanner,R,2,2019_Aug_23_1232,SST,3.0.7,23.99409380688183,
stop,sst_images/Right_Arrow.bmp,sst_images/Stop_Arrow.bmp,none,1098,None,0,70,70,70,,None,1,stop,0.2,1.098,2.098,,037,Scanner,R,2,2019_Aug_23_1232,SST,3.0.7,23.99409380688183,
go,sst_images/Left_Arrow.bmp,None,1,841,None,0,71,71,71,,1,1,go,0.2,0.841,1.841,0.6271128169901203,037,Scanner,R,2,2019_Aug_23_1232,SST,3.0.7,23.99409380688183,
go,sst_images/Right_Arrow.bmp,None,2,1181,None,0,72,72,72,,2,1,go,0.2,1.181,2.181,0.5442630879988428,037,Scanner,R,2,2019_Aug_23_1232,SST,3.0.7,23.99409380688183,
go,sst_images/Left_Arrow.bmp,None,1,758,None,0,73,73,73,,1,1,go,0.2,0.758,1.758,0.5442706360190641,037,Scanner,R,2,2019_Aug_23_1232,SST,3.0.7,23.99409380688183,
go,sst_images/Right_Arrow.bmp,None,2,843,None,0,74,74,74,,2,1,go,0.2,0.843,1.843,0.5459136510035023,037,Scanner,R,2,2019_Aug_23_1232,SST,3.0.7,23.99409380688183,
go,sst_images/Left_Arrow.bmp,None,1,882,None,0,75,75,75,,1,1,go,0.2,0.882,1.8820000000000001,0.586972788994899,037,Scanner,R,2,2019_Aug_23_1232,SST,3.0.7,23.99409380688183,
go,sst_images/Right_Arrow.bmp,None,2,926,None,0,76,76,76,,2,1,go,0.2,0.926,1.9260000000000002,0.5060189100040589,037,Scanner,R,2,2019_Aug_23_1232,SST,3.0.7,23.99409380688183,
go,sst_images/Right_Arrow.bmp,None,2,816,None,0,77,77,77,,2,1,go,0.2,0.816,1.8159999999999998,0.8393236749980133,037,Scanner,R,2,2019_Aug_23_1232,SST,3.0.7,23.99409380688183,
go,sst_images/Left_Arrow.bmp,None,1,970,None,0,78,78,78,,1,1,go,0.2,0.97,1.97,0.5831981649971567,037,Scanner,R,2,2019_Aug_23_1232,SST,3.0.7,23.99409380688183,
go,sst_images/Left_Arrow.bmp,None,1,704,None,0,79,79,79,,1,1,go,0.2,0.704,1.704,0.580900198983727,037,Scanner,R,2,2019_Aug_23_1232,SST,3.0.7,23.99409380688183,
stop,sst_images/Left_Arrow.bmp,sst_images/Stop_Arrow.bmp,none,968,None,0,80,80,80,,None,1,stop,0.25,0.968,1.968,,037,Scanner,R,2,2019_Aug_23_1232,SST,3.0.7,23.99409380688183,
go,sst_images/Right_Arrow.bmp,None,2,1416,None,0,81,81,81,,2,1,go,0.25,1.416,2.416,0.5054917150118854,037,Scanner,R,2,2019_Aug_23_1232,SST,3.0.7,23.99409380688183,
go,sst_images/Right_Arrow.bmp,None,2,777,None,0,82,82,82,,2,1,go,0.25,0.777,1.7770000000000001,0.5878854680049699,037,Scanner,R,2,2019_Aug_23_1232,SST,3.0.7,23.99409380688183,
go,sst_images/Right_Arrow.bmp,None,2,745,None,0,83,83,83,,2,1,go,0.25,0.745,1.745,0.5893759029859211,037,Scanner,R,2,2019_Aug_23_1232,SST,3.0.7,23.99409380688183,
go,sst_images/Left_Arrow.bmp,None,1,820,None,0,84,84,84,,1,1,go,0.25,0.82,1.8199999999999998,0.5891436050005723,037,Scanner,R,2,2019_Aug_23_1232,SST,3.0.7,23.99409380688183,
go,sst_images/Left_Arrow.bmp,None,1,937,None,0,85,85,85,,1,1,go,0.25,0.937,1.937,0.6703363900014665,037,Scanner,R,2,2019_Aug_23_1232,SST,3.0.7,23.99409380688183,
stop,sst_images/Right_Arrow.bmp,sst_images/Stop_Arrow.bmp,none,885,None,0,86,86,86,,2,0,stop,0.2,0.885,1.8902127149945591,0.5447872850054409,037,Scanner,R,2,2019_Aug_23_1232,SST,3.0.7,23.99409380688183,
go,sst_images/Right_Arrow.bmp,None,2,903,None,0,87,87,87,,2,1,go,0.2,0.903,1.903,0.6697939959994983,037,Scanner,R,2,2019_Aug_23_1232,SST,3.0.7,23.99409380688183,
go,sst_images/Left_Arrow.bmp,None,1,740,None,0,88,88,88,,1,1,go,0.2,0.74,1.74,0.5033474400115665,037,Scanner,R,2,2019_Aug_23_1232,SST,3.0.7,23.99409380688183,
go,sst_images/Right_Arrow.bmp,None,2,793,None,0,89,89,89,,2,1,go,0.2,0.793,1.7930000000000001,0.5079404730058741,037,Scanner,R,2,2019_Aug_23_1232,SST,3.0.7,23.99409380688183,
go,sst_images/Left_Arrow.bmp,None,1,831,None,0,90,90,90,,1,1,go,0.2,0.831,1.831,0.5063020979869179,037,Scanner,R,2,2019_Aug_23_1232,SST,3.0.7,23.99409380688183,
stop,sst_images/Right_Arrow.bmp,sst_images/Stop_Arrow.bmp,none,873,None,0,91,91,91,,2,0,stop,0.15000000000000002,0.873,1.8475867640012875,0.5254132359987125,037,Scanner,R,2,2019_Aug_23_1232,SST,3.0.7,23.99409380688183,
go,sst_images/Right_Arrow.bmp,None,2,719,None,0,92,92,92,,1,0,go,0.15000000000000002,0.719,1.7189999999999999,0.5876789649773855,037,Scanner,R,2,2019_Aug_23_1232,SST,3.0.7,23.99409380688183,
go,sst_images/Left_Arrow.bmp,None,1,960,None,0,93,93,93,,1,1,go,0.15000000000000002,0.96,1.96,0.6296312460035551,037,Scanner,R,2,2019_Aug_23_1232,SST,3.0.7,23.99409380688183,
go,sst_images/Left_Arrow.bmp,None,1,819,None,0,94,94,94,,1,1,go,0.15000000000000002,0.819,1.819,0.542692546005128,037,Scanner,R,2,2019_Aug_23_1232,SST,3.0.7,23.99409380688183,
go,sst_images/Left_Arrow.bmp,None,1,842,None,0,95,95,95,,1,1,go,0.15000000000000002,0.842,1.842,0.5033729930000845,037,Scanner,R,2,2019_Aug_23_1232,SST,3.0.7,23.99409380688183,
go,sst_images/Right_Arrow.bmp,None,2,823,None,0,96,96,96,,2,1,go,0.15000000000000002,0.823,1.823,0.544057367980713,037,Scanner,R,2,2019_Aug_23_1232,SST,3.0.7,23.99409380688183,
go,sst_images/Left_Arrow.bmp,None,1,1149,None,0,97,97,97,,1,1,go,0.15000000000000002,1.149,2.149,0.6693726730009075,037,Scanner,R,2,2019_Aug_23_1232,SST,3.0.7,23.99409380688183,
go,sst_images/Right_Arrow.bmp,None,2,754,None,0,98,98,98,,2,1,go,0.15000000000000002,0.754,1.754,0.5883157009957358,037,Scanner,R,2,2019_Aug_23_1232,SST,3.0.7,23.99409380688183,
go,sst_images/Right_Arrow.bmp,None,2,1063,None,0,99,99,99,,2,1,go,0.15000000000000002,1.063,2.0629999999999997,0.6292922350112349,037,Scanner,R,2,2019_Aug_23_1232,SST,3.0.7,23.99409380688183,
go,sst_images/Left_Arrow.bmp,None,1,945,None,0,100,100,100,,1,1,go,0.15000000000000002,0.945,1.9449999999999998,0.5460080289922189,037,Scanner,R,2,2019_Aug_23_1232,SST,3.0.7,23.99409380688183,
go,sst_images/Right_Arrow.bmp,None,2,882,None,0,101,101,101,,2,1,go,0.15000000000000002,0.882,1.8820000000000001,0.5041601789998822,037,Scanner,R,2,2019_Aug_23_1232,SST,3.0.7,23.99409380688183,
go,sst_images/Right_Arrow.bmp,None,2,806,None,0,102,102,102,,2,1,go,0.15000000000000002,0.806,1.806,0.545787285984261,037,Scanner,R,2,2019_Aug_23_1232,SST,3.0.7,23.99409380688183,
go,sst_images/Left_Arrow.bmp,None,1,736,None,0,103,103,103,,1,1,go,0.15000000000000002,0.736,1.736,0.5867609310080297,037,Scanner,R,2,2019_Aug_23_1232,SST,3.0.7,23.99409380688183,
go,sst_images/Left_Arrow.bmp,None,1,915,None,0,104,104,104,,1,1,go,0.15000000000000002,0.915,1.915,0.6263848039961886,037,Scanner,R,2,2019_Aug_23_1232,SST,3.0.7,23.99409380688183,
go,sst_images/Right_Arrow.bmp,None,2,710,None,0,105,105,105,,2,1,go,0.15000000000000002,0.71,1.71,0.4651580989884678,037,Scanner,R,2,2019_Aug_23_1232,SST,3.0.7,23.99409380688183,
stop,sst_images/Left_Arrow.bmp,sst_images/Stop_Arrow.bmp,none,772,None,0,106,106,106,,None,1,stop,0.2,0.772,1.772,,037,Scanner,R,2,2019_Aug_23_1232,SST,3.0.7,23.99409380688183,
go,sst_images/Right_Arrow.bmp,None,2,772,None,0,107,107,107,,2,1,go,0.2,0.772,1.772,0.5863807130081113,037,Scanner,R,2,2019_Aug_23_1232,SST,3.0.7,23.99409380688183,
go,sst_images/Left_Arrow.bmp,None,1,716,None,0,108,108,108,,1,1,go,0.2,0.716,1.716,0.5047307649801951,037,Scanner,R,2,2019_Aug_23_1232,SST,3.0.7,23.99409380688183,
go,sst_images/Right_Arrow.bmp,None,2,729,None,0,109,109,109,,2,1,go,0.2,0.729,1.729,0.7088464300031774,037,Scanner,R,2,2019_Aug_23_1232,SST,3.0.7,23.99409380688183,
stop,sst_images/Left_Arrow.bmp,sst_images/Stop_Arrow.bmp,none,941,None,0,110,110,110,,None,1,stop,0.25,0.941,1.9409999999999998,,037,Scanner,R,2,2019_Aug_23_1232,SST,3.0.7,23.99409380688183,
go,sst_images/Left_Arrow.bmp,None,1,1189,None,0,111,111,111,,2,0,go,0.25,1.189,2.189,0.5456825059955008,037,Scanner,R,2,2019_Aug_23_1232,SST,3.0.7,23.99409380688183,
go,sst_images/Right_Arrow.bmp,None,2,749,None,0,112,112,112,,2,1,go,0.25,0.749,1.749,0.5015573130222037,037,Scanner,R,2,2019_Aug_23_1232,SST,3.0.7,23.99409380688183,
go,sst_images/Left_Arrow.bmp,None,1,856,None,0,113,113,113,,1,1,go,0.25,0.856,1.8559999999999999,0.5859451770083979,037,Scanner,R,2,2019_Aug_23_1232,SST,3.0.7,23.99409380688183,
go,sst_images/Right_Arrow.bmp,None,2,939,None,0,114,114,114,,2,1,go,0.25,0.939,1.939,0.544830455997726,037,Scanner,R,2,2019_Aug_23_1232,SST,3.0.7,23.99409380688183,
go,sst_images/Left_Arrow.bmp,None,1,772,None,0,115,115,115,,1,1,go,0.25,0.772,1.772,0.5014068149903324,037,Scanner,R,2,2019_Aug_23_1232,SST,3.0.7,23.99409380688183,
go,sst_images/Right_Arrow.bmp,None,2,736,None,0,116,116,116,,2,1,go,0.25,0.736,1.736,0.8318411280051805,037,Scanner,R,2,2019_Aug_23_1232,SST,3.0.7,23.99409380688183,
go,sst_images/Left_Arrow.bmp,None,1,849,None,0,117,117,117,,1,1,go,0.25,0.849,1.849,0.8328138240030967,037,Scanner,R,2,2019_Aug_23_1232,SST,3.0.7,23.99409380688183,
stop,sst_images/Right_Arrow.bmp,sst_images/Stop_Arrow.bmp,none,950,None,0,118,118,118,,None,1,stop,0.3,0.95,1.95,,037,Scanner,R,2,2019_Aug_23_1232,SST,3.0.7,23.99409380688183,
go,sst_images/Right_Arrow.bmp,None,2,948,None,0,119,119,119,,None,0,go,0.3,0.948,1.948,,037,Scanner,R,2,2019_Aug_23_1232,SST,3.0.7,23.99409380688183,
go,sst_images/Left_Arrow.bmp,None,1,943,None,0,120,120,120,,1,1,go,0.3,0.943,1.943,0.5470587409799919,037,Scanner,R,2,2019_Aug_23_1232,SST,3.0.7,23.99409380688183,
go,sst_images/Right_Arrow.bmp,None,2,773,None,0,121,121,121,,2,1,go,0.3,0.773,1.7730000000000001,0.498953516012989,037,Scanner,R,2,2019_Aug_23_1232,SST,3.0.7,23.99409380688183,
go,sst_images/Right_Arrow.bmp,None,2,950,None,0,122,122,122,,1,0,go,0.3,0.95,1.95,0.5433797869773116,037,Scanner,R,2,2019_Aug_23_1232,SST,3.0.7,23.99409380688183,
go,sst_images/Left_Arrow.bmp,None,1,714,None,0,123,123,123,,1,1,go,0.3,0.714,1.714,0.6313391579897143,037,Scanner,R,2,2019_Aug_23_1232,SST,3.0.7,23.99409380688183,
stop,sst_images/Left_Arrow.bmp,sst_images/Stop_Arrow.bmp,none,756,None,0,124,124,124,,None,1,stop,0.35,0.756,1.756,,037,Scanner,R,2,2019_Aug_23_1232,SST,3.0.7,23.99409380688183,
go,sst_images/Left_Arrow.bmp,None,1,1478,None,0,125,125,125,,1,1,go,0.35,1.478,2.4779999999999998,0.7960928739921656,037,Scanner,R,2,2019_Aug_23_1232,SST,3.0.7,23.99409380688183,
go,sst_images/Left_Arrow.bmp,None,1,1656,None,0,126,126,126,,1,1,go,0.35,1.656,2.6559999999999997,0.6718923879961949,037,Scanner,R,2,2019_Aug_23_1232,SST,3.0.7,23.99409380688183,
go,sst_images/Right_Arrow.bmp,None,2,737,None,0,127,127,127,,2,1,go,0.35,0.737,1.737,0.6251448740076739,037,Scanner,R,2,2019_Aug_23_1232,SST,3.0.7,23.99409380688183,
go,sst_images/Left_Arrow.bmp,None,1,910,None,0,128,128,128,,1,1,go,0.35,0.91,1.9100000000000001,0.5013068089901935,037,Scanner,R,2,2019_Aug_23_1232,SST,3.0.7,23.99409380688183,
go,sst_images/Left_Arrow.bmp,None,1,1074,None,0,129,129,129,,1,1,go,0.35,1.074,2.074,0.6701936440076679,037,Scanner,R,2,2019_Aug_23_1232,SST,3.0.7,23.99409380688183,
stop,sst_images/Left_Arrow.bmp,sst_images/Stop_Arrow.bmp,none,775,None,0,130,130,130,,1,0,stop,0.3,0.775,1.817307070986135,0.6076929290138651,037,Scanner,R,2,2019_Aug_23_1232,SST,3.0.7,23.99409380688183,
go,sst_images/Left_Arrow.bmp,None,1,753,None,0,131,131,131,,1,1,go,0.3,0.753,1.7530000000000001,0.671033446007641,037,Scanner,R,2,2019_Aug_23_1232,SST,3.0.7,23.99409380688183,
go,sst_images/Right_Arrow.bmp,None,2,1563,None,0,132,132,132,,2,1,go,0.3,1.563,2.5629999999999997,0.6290229340083897,037,Scanner,R,2,2019_Aug_23_1232,SST,3.0.7,23.99409380688183,
go,sst_images/Left_Arrow.bmp,None,1,885,None,0,133,133,133,,1,1,go,0.3,0.885,1.885,0.6262127819936723,037,Scanner,R,2,2019_Aug_23_1232,SST,3.0.7,23.99409380688183,
go,sst_images/Left_Arrow.bmp,None,1,1028,None,0,134,134,134,,1,1,go,0.3,1.028,2.028,0.6293199509964325,037,Scanner,R,2,2019_Aug_23_1232,SST,3.0.7,23.99409380688183,
stop,sst_images/Right_Arrow.bmp,sst_images/Stop_Arrow.bmp,none,940,None,0,135,135,135,,None,1,stop,0.35,0.94,1.94,,037,Scanner,R,2,2019_Aug_23_1232,SST,3.0.7,23.99409380688183,
go,sst_images/Right_Arrow.bmp,None,2,751,None,0,136,136,136,,2,1,go,0.35,0.751,1.751,0.6675427830195986,037,Scanner,R,2,2019_Aug_23_1232,SST,3.0.7,23.99409380688183,
go,sst_images/Right_Arrow.bmp,None,2,1148,None,0,137,137,137,,2,1,go,0.35,1.148,2.1479999999999997,0.5868395399884321,037,Scanner,R,2,2019_Aug_23_1232,SST,3.0.7,23.99409380688183,
go,sst_images/Left_Arrow.bmp,None,1,886,None,0,138,138,138,,2,0,go,0.35,0.886,1.8860000000000001,0.6246768370037898,037,Scanner,R,2,2019_Aug_23_1232,SST,3.0.7,23.99409380688183,
go,sst_images/Right_Arrow.bmp,None,2,780,None,0,139,139,139,,2,1,go,0.35,0.78,1.78,0.5793177759915125,037,Scanner,R,2,2019_Aug_23_1232,SST,3.0.7,23.99409380688183,
go,sst_images/Left_Arrow.bmp,None,1,748,None,0,140,140,140,,1,1,go,0.35,0.748,1.748,0.6293044069898315,037,Scanner,R,2,2019_Aug_23_1232,SST,3.0.7,23.99409380688183,
go,sst_images/Left_Arrow.bmp,None,1,765,None,0,141,141,141,,1,1,go,0.35,0.765,1.7650000000000001,0.6288141200202517,037,Scanner,R,2,2019_Aug_23_1232,SST,3.0.7,23.99409380688183,
stop,sst_images/Left_Arrow.bmp,sst_images/Stop_Arrow.bmp,none,1193,None,0,142,142,142,,1,0,stop,0.3,1.193,2.2322373529961332,0.6107626470038667,037,Scanner,R,2,2019_Aug_23_1232,SST,3.0.7,23.99409380688183,
go,sst_images/Right_Arrow.bmp,None,2,941,None,0,143,143,143,,2,1,go,0.3,0.941,1.9409999999999998,0.6289648319943808,037,Scanner,R,2,2019_Aug_23_1232,SST,3.0.7,23.99409380688183,
go,sst_images/Left_Arrow.bmp,None,1,1026,None,0,144,144,144,,1,1,go,0.3,1.026,2.026,0.6678642329934519,037,Scanner,R,2,2019_Aug_23_1232,SST,3.0.7,23.99409380688183,
go,sst_images/Right_Arrow.bmp,None,2,786,None,0,145,145,145,,2,1,go,0.3,0.786,1.786,0.5434161880111787,037,Scanner,R,2,2019_Aug_23_1232,SST,3.0.7,23.99409380688183,
go,sst_images/Left_Arrow.bmp,None,1,904,None,0,146,146,146,,1,1,go,0.3,0.904,1.904,0.5848613760026637,037,Scanner,R,2,2019_Aug_23_1232,SST,3.0.7,23.99409380688183,
go,sst_images/Right_Arrow.bmp,None,2,804,None,0,147,147,147,,2,1,go,0.3,0.804,1.804,0.8771348920126911,037,Scanner,R,2,2019_Aug_23_1232,SST,3.0.7,23.99409380688183,
go,sst_images/Right_Arrow.bmp,None,2,977,None,0,148,148,148,,2,1,go,0.3,0.977,1.9769999999999999,0.7144380520039704,037,Scanner,R,2,2019_Aug_23_1232,SST,3.0.7,23.99409380688183,
go,sst_images/Left_Arrow.bmp,None,1,1061,None,0,149,149,149,,1,1,go,0.3,1.061,2.061,0.5457090919953771,037,Scanner,R,2,2019_Aug_23_1232,SST,3.0.7,23.99409380688183,
stop,sst_images/Right_Arrow.bmp,sst_images/Stop_Arrow.bmp,none,993,None,0,150,150,150,,None,1,stop,0.35,0.993,1.993,,037,Scanner,R,2,2019_Aug_23_1232,SST,3.0.7,23.99409380688183,
go,sst_images/Right_Arrow.bmp,None,2,761,None,0,151,151,151,,2,1,go,0.35,0.761,1.7610000000000001,0.7943289039831143,037,Scanner,R,2,2019_Aug_23_1232,SST,3.0.7,23.99409380688183,
go,sst_images/Left_Arrow.bmp,None,1,759,None,0,152,152,152,,1,1,go,0.35,0.759,1.759,0.5436069660063367,037,Scanner,R,2,2019_Aug_23_1232,SST,3.0.7,23.99409380688183,
go,sst_images/Right_Arrow.bmp,None,2,737,None,0,153,153,153,,2,1,go,0.35,0.737,1.737,0.5417063679778948,037,Scanner,R,2,2019_Aug_23_1232,SST,3.0.7,23.99409380688183,
go,sst_images/Left_Arrow.bmp,None,1,797,None,0,154,154,154,,1,1,go,0.35,0.797,1.7970000000000002,0.45701729599386454,037,Scanner,R,2,2019_Aug_23_1232,SST,3.0.7,23.99409380688183,
stop,sst_images/Right_Arrow.bmp,sst_images/Stop_Arrow.bmp,none,1714,None,0,155,155,155,,None,1,stop,0.39999999999999997,1.714,2.714,,037,Scanner,R,2,2019_Aug_23_1232,SST,3.0.7,23.99409380688183,
go,sst_images/Right_Arrow.bmp,None,2,776,None,0,156,156,156,,2,1,go,0.39999999999999997,0.776,1.776,0.6689899610064458,037,Scanner,R,2,2019_Aug_23_1232,SST,3.0.7,23.99409380688183,
go,sst_images/Left_Arrow.bmp,None,1,968,None,0,157,157,157,,1,1,go,0.39999999999999997,0.968,1.968,0.8302979370055255,037,Scanner,R,2,2019_Aug_23_1232,SST,3.0.7,23.99409380688183,
go,sst_images/Left_Arrow.bmp,None,1,880,None,0,158,158,158,,None,0,go,0.39999999999999997,0.88,1.88,,037,Scanner,R,2,2019_Aug_23_1232,SST,3.0.7,23.99409380688183,
go,sst_images/Right_Arrow.bmp,None,2,1006,None,0,159,159,159,,2,1,go,0.39999999999999997,1.006,2.0060000000000002,0.6705360529886093,037,Scanner,R,2,2019_Aug_23_1232,SST,3.0.7,23.99409380688183,
go,sst_images/Left_Arrow.bmp,None,1,884,None,0,160,160,160,,1,1,go,0.39999999999999997,0.884,1.884,0.5839636659948155,037,Scanner,R,2,2019_Aug_23_1232,SST,3.0.7,23.99409380688183,
stop,sst_images/Left_Arrow.bmp,sst_images/Stop_Arrow.bmp,none,778,None,0,161,161,161,,None,1,stop,0.44999999999999996,0.778,1.778,,037,Scanner,R,2,2019_Aug_23_1232,SST,3.0.7,23.99409380688183,
go,sst_images/Right_Arrow.bmp,None,2,1047,None,0,162,162,162,,2,1,go,0.44999999999999996,1.047,2.0469999999999997,0.5882293190225028,037,Scanner,R,2,2019_Aug_23_1232,SST,3.0.7,23.99409380688183,
go,sst_images/Right_Arrow.bmp,None,2,1406,None,0,163,163,163,,2,1,go,0.44999999999999996,1.406,2.4059999999999997,0.5858612459851429,037,Scanner,R,2,2019_Aug_23_1232,SST,3.0.7,23.99409380688183,
go,sst_images/Right_Arrow.bmp,None,2,928,None,0,164,164,164,,2,1,go,0.44999999999999996,0.928,1.928,0.5876757380028721,037,Scanner,R,2,2019_Aug_23_1232,SST,3.0.7,23.99409380688183,
stop,sst_images/Left_Arrow.bmp,sst_images/Stop_Arrow.bmp,none,960,None,0,165,165,165,,1,0,stop,0.39999999999999997,0.96,2.133972415999742,0.5760275840002578,037,Scanner,R,2,2019_Aug_23_1232,SST,3.0.7,23.99409380688183,
go,sst_images/Left_Arrow.bmp,None,1,820,None,0,166,166,166,,1,1,go,0.39999999999999997,0.82,1.8199999999999998,0.8376900969888084,037,Scanner,R,2,2019_Aug_23_1232,SST,3.0.7,23.99409380688183,
go,sst_images/Right_Arrow.bmp,None,2,807,None,0,167,167,167,,2,1,go,0.39999999999999997,0.807,1.807,0.4939679819799494,037,Scanner,R,2,2019_Aug_23_1232,SST,3.0.7,23.99409380688183,
go,sst_images/Right_Arrow.bmp,None,2,762,None,0,168,168,168,,2,1,go,0.39999999999999997,0.762,1.762,0.8792659259925131,037,Scanner,R,2,2019_Aug_23_1232,SST,3.0.7,23.99409380688183,
stop,sst_images/Left_Arrow.bmp,sst_images/Stop_Arrow.bmp,none,777,None,0,169,169,169,,1,0,stop,0.35,0.777,1.82913868500432,0.64786131499568,037,Scanner,R,2,2019_Aug_23_1232,SST,3.0.7,23.99409380688183,
go,sst_images/Left_Arrow.bmp,None,1,1105,None,0,170,170,170,,1,1,go,0.35,1.105,2.105,0.5882330439926591,037,Scanner,R,2,2019_Aug_23_1232,SST,3.0.7,23.99409380688183,
go,sst_images/Right_Arrow.bmp,None,2,782,None,0,171,171,171,,2,1,go,0.35,0.782,1.782,0.6689866739907302,037,Scanner,R,2,2019_Aug_23_1232,SST,3.0.7,23.99409380688183,
go,sst_images/Right_Arrow.bmp,None,2,785,None,0,172,172,172,,2,1,go,0.35,0.785,1.7850000000000001,0.5789001270022709,037,Scanner,R,2,2019_Aug_23_1232,SST,3.0.7,23.99409380688183,
stop,sst_images/Right_Arrow.bmp,sst_images/Stop_Arrow.bmp,none,797,None,0,173,173,173,,None,1,stop,0.39999999999999997,0.797,1.797,,037,Scanner,R,2,2019_Aug_23_1232,SST,3.0.7,23.99409380688183,
go,sst_images/Right_Arrow.bmp,None,2,714,None,0,174,174,174,,2,1,go,0.39999999999999997,0.714,1.714,0.7958024109830149,037,Scanner,R,2,2019_Aug_23_1232,SST,3.0.7,23.99409380688183,
go,sst_images/Left_Arrow.bmp,None,1,928,None,0,175,175,175,,1,1,go,0.39999999999999997,0.928,1.928,0.6556952600076329,037,Scanner,R,2,2019_Aug_23_1232,SST,3.0.7,23.99409380688183,
go,sst_images/Right_Arrow.bmp,None,2,841,None,0,176,176,176,,2,1,go,0.39999999999999997,0.841,1.841,0.754371380986413,037,Scanner,R,2,2019_Aug_23_1232,SST,3.0.7,23.99409380688183,
stop,sst_images/Left_Arrow.bmp,sst_images/Stop_Arrow.bmp,none,963,None,0,177,177,177,,1,0,stop,0.35,0.963,1.998795680002775,0.664204319997225,037,Scanner,R,2,2019_Aug_23_1232,SST,3.0.7,23.99409380688183,
go,sst_images/Left_Arrow.bmp,None,1,758,None,0,178,178,178,,1,1,go,0.35,0.758,1.758,0.6294208010076545,037,Scanner,R,2,2019_Aug_23_1232,SST,3.0.7,23.99409380688183,
go,sst_images/Right_Arrow.bmp,None,2,837,4351.0,0,179,179,179,,2,1,go,0.35,0.837,1.837,0.4419826910016127,037,Scanner,R,2,2019_Aug_23_1232,SST,3.0.7,23.99409380688183,
