trial_type,arrow_1,arrow_2,corrAns,jitter,run_end_fixation,trials.thisRepN,trials.thisTrialN,trials.thisN,trials.thisIndex,randomized TrialOrder,key_response.keys,key_response.corr,key_response.rt,trial_t.routineEndVal,ss_delay,iti_duration,SOA,participant,prac_or_scan,handedness,run,date,expName,psychopyVersion,frameRate,
go,sst_images/Left_Arrow.bmp,None,1,713,None,0,0,0,0,2,1,1,0.6437924560159445,go,0.05,0.713,1.713,038,Scanner,R,1,2019_Aug_25_1153,SST,3.0.7,None,
stop,sst_images/Right_Arrow.bmp,sst_images/Stop_Arrow.bmp,none,767,None,0,1,1,1,,None,1,,stop,0.1,0.767,1.767,038,Scanner,R,1,2019_Aug_25_1153,SST,3.0.7,None,
go,sst_images/Right_Arrow.bmp,None,2,928,None,0,2,2,2,,2,1,0.42244170600315556,go,0.1,0.928,1.928,038,Scanner,R,1,2019_Aug_25_1153,SST,3.0.7,None,
go,sst_images/Right_Arrow.bmp,None,2,735,None,0,3,3,3,,2,1,0.8294864440103993,go,0.1,0.735,1.7349999999999999,038,Scanner,R,1,2019_Aug_25_1153,SST,3.0.7,None,
go,sst_images/Left_Arrow.bmp,None,1,1380,None,0,4,4,4,,1,1,0.5440510020125657,go,0.1,1.38,2.38,038,Scanner,R,1,2019_Aug_25_1153,SST,3.0.7,None,
go,sst_images/Left_Arrow.bmp,None,1,769,None,0,5,5,5,,1,1,0.583909005013993,go,0.1,0.769,1.7690000000000001,038,Scanner,R,1,2019_Aug_25_1153,SST,3.0.7,None,
stop,sst_images/Left_Arrow.bmp,sst_images/Stop_Arrow.bmp,none,884,None,0,6,6,6,,None,1,,stop,0.15000000000000002,0.884,1.8840000000000001,038,Scanner,R,1,2019_Aug_25_1153,SST,3.0.7,None,
go,sst_images/Right_Arrow.bmp,None,2,732,None,0,7,7,7,,2,1,0.37691902299411595,go,0.15000000000000002,0.732,1.732,038,Scanner,R,1,2019_Aug_25_1153,SST,3.0.7,None,
go,sst_images/Left_Arrow.bmp,None,1,847,None,0,8,8,8,,1,1,0.3777956640115008,go,0.15000000000000002,0.847,1.847,038,Scanner,R,1,2019_Aug_25_1153,SST,3.0.7,None,
stop,sst_images/Left_Arrow.bmp,sst_images/Stop_Arrow.bmp,none,1278,None,0,9,9,9,,None,1,,stop,0.2,1.278,2.2779999999999996,038,Scanner,R,1,2019_Aug_25_1153,SST,3.0.7,None,
go,sst_images/Right_Arrow.bmp,None,2,701,None,0,10,10,10,,2,1,0.45723591998103075,go,0.2,0.701,1.701,038,Scanner,R,1,2019_Aug_25_1153,SST,3.0.7,None,
go,sst_images/Right_Arrow.bmp,None,2,1480,None,0,11,11,11,,1,0,0.3786022540007252,go,0.2,1.48,2.48,038,Scanner,R,1,2019_Aug_25_1153,SST,3.0.7,None,
go,sst_images/Left_Arrow.bmp,None,1,935,None,0,12,12,12,,1,1,0.3707708290021401,go,0.2,0.935,1.935,038,Scanner,R,1,2019_Aug_25_1153,SST,3.0.7,None,
go,sst_images/Right_Arrow.bmp,None,2,1533,None,0,13,13,13,,2,1,0.46010781201766804,go,0.2,1.533,2.533,038,Scanner,R,1,2019_Aug_25_1153,SST,3.0.7,None,
go,sst_images/Left_Arrow.bmp,None,1,747,None,0,14,14,14,,1,1,0.4209611510159448,go,0.2,0.747,1.7469999999999999,038,Scanner,R,1,2019_Aug_25_1153,SST,3.0.7,None,
go,sst_images/Left_Arrow.bmp,None,1,1758,None,0,15,15,15,,1,1,0.5446849720028695,go,0.2,1.758,2.758,038,Scanner,R,1,2019_Aug_25_1153,SST,3.0.7,None,
go,sst_images/Left_Arrow.bmp,None,1,818,None,0,16,16,16,,1,1,0.6314694650063757,go,0.2,0.818,1.818,038,Scanner,R,1,2019_Aug_25_1153,SST,3.0.7,None,
go,sst_images/Right_Arrow.bmp,None,2,833,None,0,17,17,17,,2,1,0.4636056680174079,go,0.2,0.833,1.833,038,Scanner,R,1,2019_Aug_25_1153,SST,3.0.7,None,
stop,sst_images/Right_Arrow.bmp,sst_images/Stop_Arrow.bmp,none,1248,None,0,18,18,18,,2,0,0.5252882559725549,stop,0.15000000000000002,1.248,2.222711744027445,038,Scanner,R,1,2019_Aug_25_1153,SST,3.0.7,None,
go,sst_images/Left_Arrow.bmp,None,1,1081,None,0,19,19,19,,1,1,0.4201862179907039,go,0.15000000000000002,1.081,2.081,038,Scanner,R,1,2019_Aug_25_1153,SST,3.0.7,None,
go,sst_images/Left_Arrow.bmp,None,1,872,None,0,20,20,20,,1,1,0.5434690129768569,go,0.15000000000000002,0.872,1.8719999999999999,038,Scanner,R,1,2019_Aug_25_1153,SST,3.0.7,None,
go,sst_images/Right_Arrow.bmp,None,2,820,None,0,21,21,21,,1,0,0.37876433599740267,go,0.15000000000000002,0.82,1.8199999999999998,038,Scanner,R,1,2019_Aug_25_1153,SST,3.0.7,None,
go,sst_images/Left_Arrow.bmp,None,1,702,None,0,22,22,22,,1,1,0.33877888999995776,go,0.15000000000000002,0.702,1.702,038,Scanner,R,1,2019_Aug_25_1153,SST,3.0.7,None,
go,sst_images/Right_Arrow.bmp,None,2,833,None,0,23,23,23,,2,1,0.41985624001245014,go,0.15000000000000002,0.833,1.833,038,Scanner,R,1,2019_Aug_25_1153,SST,3.0.7,None,
go,sst_images/Left_Arrow.bmp,None,1,795,None,0,24,24,24,,1,1,0.37795287001063116,go,0.15000000000000002,0.795,1.795,038,Scanner,R,1,2019_Aug_25_1153,SST,3.0.7,None,
go,sst_images/Right_Arrow.bmp,None,2,846,None,0,25,25,25,,2,1,0.3755865949788131,go,0.15000000000000002,0.846,1.846,038,Scanner,R,1,2019_Aug_25_1153,SST,3.0.7,None,
go,sst_images/Right_Arrow.bmp,None,2,707,None,0,26,26,26,,1,0,0.37603034600033425,go,0.15000000000000002,0.707,1.7069999999999999,038,Scanner,R,1,2019_Aug_25_1153,SST,3.0.7,None,
go,sst_images/Left_Arrow.bmp,None,1,811,None,0,27,27,27,,1,1,0.37667105498258024,go,0.15000000000000002,0.811,1.811,038,Scanner,R,1,2019_Aug_25_1153,SST,3.0.7,None,
stop,sst_images/Right_Arrow.bmp,sst_images/Stop_Arrow.bmp,none,1022,None,0,28,28,28,,None,1,,stop,0.2,1.022,2.022,038,Scanner,R,1,2019_Aug_25_1153,SST,3.0.7,None,
go,sst_images/Right_Arrow.bmp,None,2,804,None,0,29,29,29,,2,1,0.42073000100208446,go,0.2,0.804,1.804,038,Scanner,R,1,2019_Aug_25_1153,SST,3.0.7,None,
go,sst_images/Right_Arrow.bmp,None,2,741,None,0,30,30,30,,1,0,0.3782174559892155,go,0.2,0.741,1.741,038,Scanner,R,1,2019_Aug_25_1153,SST,3.0.7,None,
go,sst_images/Left_Arrow.bmp,None,1,889,None,0,31,31,31,,1,1,0.4166463949950412,go,0.2,0.889,1.889,038,Scanner,R,1,2019_Aug_25_1153,SST,3.0.7,None,
stop,sst_images/Left_Arrow.bmp,sst_images/Stop_Arrow.bmp,none,765,None,0,32,32,32,,2,0,0.4048602709954139,stop,0.15000000000000002,0.765,1.8601397290045862,038,Scanner,R,1,2019_Aug_25_1153,SST,3.0.7,None,
go,sst_images/Right_Arrow.bmp,None,2,1191,None,0,33,33,33,,2,1,0.6710358959971927,go,0.15000000000000002,1.191,2.191,038,Scanner,R,1,2019_Aug_25_1153,SST,3.0.7,None,
go,sst_images/Left_Arrow.bmp,None,1,1158,None,0,34,34,34,,1,1,0.4203480620053597,go,0.15000000000000002,1.158,2.158,038,Scanner,R,1,2019_Aug_25_1153,SST,3.0.7,None,
stop,sst_images/Right_Arrow.bmp,sst_images/Stop_Arrow.bmp,none,847,None,0,35,35,35,,None,1,,stop,0.2,0.847,1.8469999999999998,038,Scanner,R,1,2019_Aug_25_1153,SST,3.0.7,None,
go,sst_images/Left_Arrow.bmp,None,1,1121,None,0,36,36,36,,2,0,0.42109849202097394,go,0.2,1.121,2.121,038,Scanner,R,1,2019_Aug_25_1153,SST,3.0.7,None,
stop,sst_images/Right_Arrow.bmp,sst_images/Stop_Arrow.bmp,none,1008,None,0,37,37,37,,2,0,0.5444121329928748,stop,0.15000000000000002,1.008,1.9635878670071252,038,Scanner,R,1,2019_Aug_25_1153,SST,3.0.7,None,
go,sst_images/Right_Arrow.bmp,None,2,728,None,0,38,38,38,,2,1,0.585993540007621,go,0.15000000000000002,0.728,1.728,038,Scanner,R,1,2019_Aug_25_1153,SST,3.0.7,None,
go,sst_images/Right_Arrow.bmp,None,2,812,None,0,39,39,39,,2,1,0.6711549510073382,go,0.15000000000000002,0.812,1.812,038,Scanner,R,1,2019_Aug_25_1153,SST,3.0.7,None,
go,sst_images/Left_Arrow.bmp,None,1,836,None,0,40,40,40,,1,1,0.46020180301275104,go,0.15000000000000002,0.836,1.8359999999999999,038,Scanner,R,1,2019_Aug_25_1153,SST,3.0.7,None,
go,sst_images/Left_Arrow.bmp,None,1,894,None,0,41,41,41,,1,1,0.6223376110137906,go,0.15000000000000002,0.894,1.8940000000000001,038,Scanner,R,1,2019_Aug_25_1153,SST,3.0.7,None,
stop,sst_images/Left_Arrow.bmp,sst_images/Stop_Arrow.bmp,none,714,None,0,42,42,42,,None,1,,stop,0.2,0.714,1.7139999999999997,038,Scanner,R,1,2019_Aug_25_1153,SST,3.0.7,None,
go,sst_images/Right_Arrow.bmp,None,2,719,None,0,43,43,43,,2,1,0.5054217029828578,go,0.2,0.719,1.7189999999999999,038,Scanner,R,1,2019_Aug_25_1153,SST,3.0.7,None,
go,sst_images/Left_Arrow.bmp,None,1,707,None,0,44,44,44,,1,1,0.6161913029791322,go,0.2,0.707,1.7069999999999999,038,Scanner,R,1,2019_Aug_25_1153,SST,3.0.7,None,
go,sst_images/Left_Arrow.bmp,None,1,787,None,0,45,45,45,,1,1,0.5451669390022289,go,0.2,0.787,1.787,038,Scanner,R,1,2019_Aug_25_1153,SST,3.0.7,None,
stop,sst_images/Right_Arrow.bmp,sst_images/Stop_Arrow.bmp,none,767,None,0,46,46,46,,2,0,0.3454559480014723,stop,0.15000000000000002,0.767,1.9215440519985276,038,Scanner,R,1,2019_Aug_25_1153,SST,3.0.7,None,
go,sst_images/Right_Arrow.bmp,None,2,783,None,0,47,47,47,,2,1,0.46070633400813676,go,0.15000000000000002,0.783,1.783,038,Scanner,R,1,2019_Aug_25_1153,SST,3.0.7,None,
go,sst_images/Right_Arrow.bmp,None,2,743,None,0,48,48,48,,1,0,0.3714114429894835,go,0.15000000000000002,0.743,1.7429999999999999,038,Scanner,R,1,2019_Aug_25_1153,SST,3.0.7,None,
go,sst_images/Right_Arrow.bmp,None,2,752,None,0,49,49,49,,2,1,0.6223015449941158,go,0.15000000000000002,0.752,1.752,038,Scanner,R,1,2019_Aug_25_1153,SST,3.0.7,None,
stop,sst_images/Left_Arrow.bmp,sst_images/Stop_Arrow.bmp,none,1219,None,0,50,50,50,,2,0,0.43640468298690394,stop,0.10000000000000002,1.219,2.232595317013096,038,Scanner,R,1,2019_Aug_25_1153,SST,3.0.7,None,
go,sst_images/Left_Arrow.bmp,None,1,1510,None,0,51,51,51,,1,1,0.46335592202376574,go,0.10000000000000002,1.51,2.51,038,Scanner,R,1,2019_Aug_25_1153,SST,3.0.7,None,
go,sst_images/Left_Arrow.bmp,None,1,1441,None,0,52,52,52,,1,1,0.46079804899636656,go,0.10000000000000002,1.441,2.441,038,Scanner,R,1,2019_Aug_25_1153,SST,3.0.7,None,
go,sst_images/Left_Arrow.bmp,None,1,774,None,0,53,53,53,,1,1,0.44369529897812754,go,0.10000000000000002,0.774,1.774,038,Scanner,R,1,2019_Aug_25_1153,SST,3.0.7,None,
go,sst_images/Right_Arrow.bmp,None,2,1033,None,0,54,54,54,,2,1,0.5472471410175785,go,0.10000000000000002,1.033,2.033,038,Scanner,R,1,2019_Aug_25_1153,SST,3.0.7,None,
stop,sst_images/Right_Arrow.bmp,sst_images/Stop_Arrow.bmp,none,868,None,0,55,55,55,,1,0,0.3740035860100761,stop,0.05000000000000002,0.868,1.893996413989924,038,Scanner,R,1,2019_Aug_25_1153,SST,3.0.7,None,
go,sst_images/Right_Arrow.bmp,None,2,836,None,0,56,56,56,,2,1,0.495666433009319,go,0.05000000000000002,0.836,1.8359999999999999,038,Scanner,R,1,2019_Aug_25_1153,SST,3.0.7,None,
go,sst_images/Left_Arrow.bmp,None,1,713,None,0,57,57,57,,1,1,0.37872758897719905,go,0.05000000000000002,0.713,1.713,038,Scanner,R,1,2019_Aug_25_1153,SST,3.0.7,None,
go,sst_images/Left_Arrow.bmp,None,1,707,None,0,58,58,58,,1,1,0.4199455860070884,go,0.05000000000000002,0.707,1.7069999999999999,038,Scanner,R,1,2019_Aug_25_1153,SST,3.0.7,None,
go,sst_images/Left_Arrow.bmp,None,1,878,None,0,59,59,59,,1,1,0.41649420297471806,go,0.05000000000000002,0.878,1.8780000000000001,038,Scanner,R,1,2019_Aug_25_1153,SST,3.0.7,None,
go,sst_images/Right_Arrow.bmp,None,2,851,None,0,60,60,60,,1,0,0.4167687880108133,go,0.05000000000000002,0.851,1.851,038,Scanner,R,1,2019_Aug_25_1153,SST,3.0.7,None,
go,sst_images/Left_Arrow.bmp,None,1,1008,None,0,61,61,61,,1,1,0.4201899849867914,go,0.05000000000000002,1.008,2.008,038,Scanner,R,1,2019_Aug_25_1153,SST,3.0.7,None,
go,sst_images/Left_Arrow.bmp,None,1,1763,None,0,62,62,62,,1,1,0.4638498639978934,go,0.05000000000000002,1.763,2.763,038,Scanner,R,1,2019_Aug_25_1153,SST,3.0.7,None,
go,sst_images/Right_Arrow.bmp,None,2,714,None,0,63,63,63,,2,1,0.45963429400580935,go,0.05000000000000002,0.714,1.714,038,Scanner,R,1,2019_Aug_25_1153,SST,3.0.7,None,
go,sst_images/Right_Arrow.bmp,None,2,1009,None,0,64,64,64,,1,0,0.45826769099221565,go,0.05000000000000002,1.009,2.009,038,Scanner,R,1,2019_Aug_25_1153,SST,3.0.7,None,
go,sst_images/Left_Arrow.bmp,None,1,1274,None,0,65,65,65,,1,1,0.41077148998738267,go,0.05000000000000002,1.274,2.274,038,Scanner,R,1,2019_Aug_25_1153,SST,3.0.7,None,
stop,sst_images/Right_Arrow.bmp,sst_images/Stop_Arrow.bmp,none,787,None,0,66,66,66,,None,1,,stop,0.10000000000000002,0.787,1.787,038,Scanner,R,1,2019_Aug_25_1153,SST,3.0.7,None,
go,sst_images/Right_Arrow.bmp,None,2,1357,None,0,67,67,67,,2,1,0.5450970800011419,go,0.10000000000000002,1.357,2.357,038,Scanner,R,1,2019_Aug_25_1153,SST,3.0.7,None,
go,sst_images/Left_Arrow.bmp,None,1,707,None,0,68,68,68,,1,1,0.46312785099144094,go,0.10000000000000002,0.707,1.7069999999999999,038,Scanner,R,1,2019_Aug_25_1153,SST,3.0.7,None,
go,sst_images/Right_Arrow.bmp,None,2,735,None,0,69,69,69,,2,1,0.5036078119883314,go,0.10000000000000002,0.735,1.7349999999999999,038,Scanner,R,1,2019_Aug_25_1153,SST,3.0.7,None,
stop,sst_images/Left_Arrow.bmp,sst_images/Stop_Arrow.bmp,none,707,None,0,70,70,70,,None,1,,stop,0.15000000000000002,0.707,1.707,038,Scanner,R,1,2019_Aug_25_1153,SST,3.0.7,None,
go,sst_images/Right_Arrow.bmp,None,2,796,None,0,71,71,71,,2,1,0.5463265079888515,go,0.15000000000000002,0.796,1.796,038,Scanner,R,1,2019_Aug_25_1153,SST,3.0.7,None,
go,sst_images/Left_Arrow.bmp,None,1,798,None,0,72,72,72,,1,1,0.42075604500132613,go,0.15000000000000002,0.798,1.798,038,Scanner,R,1,2019_Aug_25_1153,SST,3.0.7,None,
go,sst_images/Right_Arrow.bmp,None,2,705,None,0,73,73,73,,2,1,0.45908439898630604,go,0.15000000000000002,0.705,1.705,038,Scanner,R,1,2019_Aug_25_1153,SST,3.0.7,None,
go,sst_images/Left_Arrow.bmp,None,1,802,None,0,74,74,74,,1,1,0.3766648280143272,go,0.15000000000000002,0.802,1.802,038,Scanner,R,1,2019_Aug_25_1153,SST,3.0.7,None,
stop,sst_images/Right_Arrow.bmp,sst_images/Stop_Arrow.bmp,none,1871,None,0,75,75,75,,2,0,0.3948771239956841,stop,0.10000000000000002,1.871,2.9261228760043156,038,Scanner,R,1,2019_Aug_25_1153,SST,3.0.7,None,
go,sst_images/Right_Arrow.bmp,None,2,912,None,0,76,76,76,,1,0,0.3817720719962381,go,0.10000000000000002,0.912,1.912,038,Scanner,R,1,2019_Aug_25_1153,SST,3.0.7,None,
go,sst_images/Left_Arrow.bmp,None,1,752,None,0,77,77,77,,1,1,0.37832597401575185,go,0.10000000000000002,0.752,1.752,038,Scanner,R,1,2019_Aug_25_1153,SST,3.0.7,None,
go,sst_images/Right_Arrow.bmp,None,2,868,None,0,78,78,78,,2,1,0.4603726380155422,go,0.10000000000000002,0.868,1.8679999999999999,038,Scanner,R,1,2019_Aug_25_1153,SST,3.0.7,None,
stop,sst_images/Right_Arrow.bmp,sst_images/Stop_Arrow.bmp,none,719,None,0,79,79,79,,None,1,,stop,0.15000000000000002,0.719,1.719,038,Scanner,R,1,2019_Aug_25_1153,SST,3.0.7,None,
go,sst_images/Right_Arrow.bmp,None,2,789,None,0,80,80,80,,2,1,0.5477745179960039,go,0.15000000000000002,0.789,1.7890000000000001,038,Scanner,R,1,2019_Aug_25_1153,SST,3.0.7,None,
go,sst_images/Left_Arrow.bmp,None,1,745,None,0,81,81,81,,1,1,0.4208729119854979,go,0.15000000000000002,0.745,1.745,038,Scanner,R,1,2019_Aug_25_1153,SST,3.0.7,None,
go,sst_images/Left_Arrow.bmp,None,1,796,None,0,82,82,82,,1,1,0.545828285976313,go,0.15000000000000002,0.796,1.796,038,Scanner,R,1,2019_Aug_25_1153,SST,3.0.7,None,
go,sst_images/Right_Arrow.bmp,None,2,1025,None,0,83,83,83,,2,1,0.4597633670200594,go,0.15000000000000002,1.025,2.025,038,Scanner,R,1,2019_Aug_25_1153,SST,3.0.7,None,
stop,sst_images/Left_Arrow.bmp,sst_images/Stop_Arrow.bmp,none,737,None,0,84,84,84,,1,0,0.37106676600524224,stop,0.10000000000000002,0.737,1.8159332339947578,038,Scanner,R,1,2019_Aug_25_1153,SST,3.0.7,None,
go,sst_images/Right_Arrow.bmp,None,2,915,None,0,85,85,85,,2,1,0.5446626740158536,go,0.10000000000000002,0.915,1.915,038,Scanner,R,1,2019_Aug_25_1153,SST,3.0.7,None,
go,sst_images/Right_Arrow.bmp,None,2,882,None,0,86,86,86,,2,1,0.5042381349776406,go,0.10000000000000002,0.882,1.8820000000000001,038,Scanner,R,1,2019_Aug_25_1153,SST,3.0.7,None,
go,sst_images/Left_Arrow.bmp,None,1,704,None,0,87,87,87,,1,1,0.3784313870128244,go,0.10000000000000002,0.704,1.704,038,Scanner,R,1,2019_Aug_25_1153,SST,3.0.7,None,
stop,sst_images/Left_Arrow.bmp,sst_images/Stop_Arrow.bmp,none,707,None,0,88,88,88,,2,0,0.36161626598914154,stop,0.05000000000000002,0.707,1.7453837340108584,038,Scanner,R,1,2019_Aug_25_1153,SST,3.0.7,None,
go,sst_images/Left_Arrow.bmp,None,1,1357,None,0,89,89,89,,2,0,0.37798555797780864,go,0.05000000000000002,1.357,2.357,038,Scanner,R,1,2019_Aug_25_1153,SST,3.0.7,None,
go,sst_images/Right_Arrow.bmp,None,2,740,None,0,90,90,90,,2,1,0.42080358500243165,go,0.05000000000000002,0.74,1.74,038,Scanner,R,1,2019_Aug_25_1153,SST,3.0.7,None,
go,sst_images/Left_Arrow.bmp,None,1,1198,None,0,91,91,91,,1,1,0.41814084400539286,go,0.05000000000000002,1.198,2.198,038,Scanner,R,1,2019_Aug_25_1153,SST,3.0.7,None,
go,sst_images/Right_Arrow.bmp,None,2,1899,None,0,92,92,92,,1,0,0.41865262601641007,go,0.05000000000000002,1.899,2.899,038,Scanner,R,1,2019_Aug_25_1153,SST,3.0.7,None,
go,sst_images/Left_Arrow.bmp,None,1,1871,None,0,93,93,93,,1,1,0.4192284299933817,go,0.05000000000000002,1.871,2.871,038,Scanner,R,1,2019_Aug_25_1153,SST,3.0.7,None,
go,sst_images/Right_Arrow.bmp,None,2,1095,None,0,94,94,94,,2,1,0.3757705790048931,go,0.05000000000000002,1.095,2.0949999999999998,038,Scanner,R,1,2019_Aug_25_1153,SST,3.0.7,None,
go,sst_images/Left_Arrow.bmp,None,1,790,None,0,95,95,95,,1,1,0.4597511400061194,go,0.05000000000000002,0.79,1.79,038,Scanner,R,1,2019_Aug_25_1153,SST,3.0.7,None,
go,sst_images/Left_Arrow.bmp,None,1,1633,None,0,96,96,96,,2,0,0.3791405640076846,go,0.05000000000000002,1.633,2.633,038,Scanner,R,1,2019_Aug_25_1153,SST,3.0.7,None,
go,sst_images/Left_Arrow.bmp,None,1,791,None,0,97,97,97,,1,1,0.41915456898277625,go,0.05000000000000002,0.791,1.791,038,Scanner,R,1,2019_Aug_25_1153,SST,3.0.7,None,
go,sst_images/Right_Arrow.bmp,None,2,750,None,0,98,98,98,,2,1,0.5044563419942278,go,0.05000000000000002,0.75,1.75,038,Scanner,R,1,2019_Aug_25_1153,SST,3.0.7,None,
stop,sst_images/Right_Arrow.bmp,sst_images/Stop_Arrow.bmp,none,893,None,0,99,99,99,,None,1,,stop,0.10000000000000002,0.893,1.893,038,Scanner,R,1,2019_Aug_25_1153,SST,3.0.7,None,
go,sst_images/Left_Arrow.bmp,None,1,748,None,0,100,100,100,,1,1,0.41642637201584876,go,0.10000000000000002,0.748,1.748,038,Scanner,R,1,2019_Aug_25_1153,SST,3.0.7,None,
go,sst_images/Right_Arrow.bmp,None,2,1219,None,0,101,101,101,,2,1,0.3750648899876978,go,0.10000000000000002,1.219,2.2190000000000003,038,Scanner,R,1,2019_Aug_25_1153,SST,3.0.7,None,
go,sst_images/Right_Arrow.bmp,None,2,938,None,0,102,102,102,,2,1,0.6271530849917326,go,0.10000000000000002,0.938,1.938,038,Scanner,R,1,2019_Aug_25_1153,SST,3.0.7,None,
go,sst_images/Left_Arrow.bmp,None,1,706,None,0,103,103,103,,1,1,0.46418643998913467,go,0.10000000000000002,0.706,1.706,038,Scanner,R,1,2019_Aug_25_1153,SST,3.0.7,None,
stop,sst_images/Left_Arrow.bmp,sst_images/Stop_Arrow.bmp,none,740,None,0,104,104,104,,None,1,,stop,0.15000000000000002,0.74,1.74,038,Scanner,R,1,2019_Aug_25_1153,SST,3.0.7,None,
go,sst_images/Right_Arrow.bmp,None,2,1313,None,0,105,105,105,,2,1,0.5882341289834585,go,0.15000000000000002,1.313,2.3129999999999997,038,Scanner,R,1,2019_Aug_25_1153,SST,3.0.7,None,
go,sst_images/Right_Arrow.bmp,None,2,869,None,0,106,106,106,,2,1,0.6253538070013747,go,0.15000000000000002,0.869,1.869,038,Scanner,R,1,2019_Aug_25_1153,SST,3.0.7,None,
go,sst_images/Left_Arrow.bmp,None,1,862,None,0,107,107,107,,1,1,0.4614987800014205,go,0.15000000000000002,0.862,1.862,038,Scanner,R,1,2019_Aug_25_1153,SST,3.0.7,None,
stop,sst_images/Left_Arrow.bmp,sst_images/Stop_Arrow.bmp,none,894,None,0,108,108,108,,None,1,,stop,0.2,0.894,1.894,038,Scanner,R,1,2019_Aug_25_1153,SST,3.0.7,None,
go,sst_images/Left_Arrow.bmp,None,1,1016,None,0,109,109,109,,1,1,0.7537642290117219,go,0.2,1.016,2.016,038,Scanner,R,1,2019_Aug_25_1153,SST,3.0.7,None,
go,sst_images/Right_Arrow.bmp,None,2,929,None,0,110,110,110,,2,1,0.547514289006358,go,0.2,0.929,1.929,038,Scanner,R,1,2019_Aug_25_1153,SST,3.0.7,None,
stop,sst_images/Right_Arrow.bmp,sst_images/Stop_Arrow.bmp,none,758,None,0,111,111,111,,2,0,0.4837121019954793,stop,0.15000000000000002,0.758,1.7742878980045207,038,Scanner,R,1,2019_Aug_25_1153,SST,3.0.7,None,
go,sst_images/Right_Arrow.bmp,None,2,1181,None,0,112,112,112,,2,1,0.5458008100104053,go,0.15000000000000002,1.181,2.181,038,Scanner,R,1,2019_Aug_25_1153,SST,3.0.7,None,
go,sst_images/Left_Arrow.bmp,None,1,747,None,0,113,113,113,,1,1,0.41912221402162686,go,0.15000000000000002,0.747,1.7469999999999999,038,Scanner,R,1,2019_Aug_25_1153,SST,3.0.7,None,
go,sst_images/Right_Arrow.bmp,None,2,742,None,0,114,114,114,,1,0,0.542770650004968,go,0.15000000000000002,0.742,1.742,038,Scanner,R,1,2019_Aug_25_1153,SST,3.0.7,None,
stop,sst_images/Left_Arrow.bmp,sst_images/Stop_Arrow.bmp,none,813,None,0,115,115,115,,None,1,,stop,0.2,0.813,1.813,038,Scanner,R,1,2019_Aug_25_1153,SST,3.0.7,None,
go,sst_images/Left_Arrow.bmp,None,1,702,None,0,116,116,116,,1,1,0.5846272610069718,go,0.2,0.702,1.702,038,Scanner,R,1,2019_Aug_25_1153,SST,3.0.7,None,
go,sst_images/Right_Arrow.bmp,None,2,922,None,0,117,117,117,,2,1,0.5450959330191836,go,0.2,0.922,1.9220000000000002,038,Scanner,R,1,2019_Aug_25_1153,SST,3.0.7,None,
go,sst_images/Left_Arrow.bmp,None,1,959,None,0,118,118,118,,1,1,0.5878258809971157,go,0.2,0.959,1.959,038,Scanner,R,1,2019_Aug_25_1153,SST,3.0.7,None,
stop,sst_images/Right_Arrow.bmp,sst_images/Stop_Arrow.bmp,none,758,None,0,119,119,119,,2,0,0.5268291500105988,stop,0.15000000000000002,0.758,1.7311708499894012,038,Scanner,R,1,2019_Aug_25_1153,SST,3.0.7,None,
go,sst_images/Right_Arrow.bmp,None,2,760,None,0,120,120,120,,2,1,0.6292976360127795,go,0.15000000000000002,0.76,1.76,038,Scanner,R,1,2019_Aug_25_1153,SST,3.0.7,None,
go,sst_images/Left_Arrow.bmp,None,1,702,None,0,121,121,121,,1,1,0.5887669059738982,go,0.15000000000000002,0.702,1.702,038,Scanner,R,1,2019_Aug_25_1153,SST,3.0.7,None,
go,sst_images/Right_Arrow.bmp,None,2,879,None,0,122,122,122,,2,1,0.5453429720073473,go,0.15000000000000002,0.879,1.879,038,Scanner,R,1,2019_Aug_25_1153,SST,3.0.7,None,
go,sst_images/Left_Arrow.bmp,None,1,701,None,0,123,123,123,,1,1,0.46094928099773824,go,0.15000000000000002,0.701,1.701,038,Scanner,R,1,2019_Aug_25_1153,SST,3.0.7,None,
go,sst_images/Right_Arrow.bmp,None,2,779,None,0,124,124,124,,2,1,0.42052743199747056,go,0.15000000000000002,0.779,1.779,038,Scanner,R,1,2019_Aug_25_1153,SST,3.0.7,None,
go,sst_images/Left_Arrow.bmp,None,1,737,None,0,125,125,125,,1,1,0.41372577400761656,go,0.15000000000000002,0.737,1.737,038,Scanner,R,1,2019_Aug_25_1153,SST,3.0.7,None,
go,sst_images/Right_Arrow.bmp,None,2,782,None,0,126,126,126,,2,1,0.42071048100478947,go,0.15000000000000002,0.782,1.782,038,Scanner,R,1,2019_Aug_25_1153,SST,3.0.7,None,
go,sst_images/Right_Arrow.bmp,None,2,890,None,0,127,127,127,,2,1,0.45971183499204926,go,0.15000000000000002,0.89,1.8900000000000001,038,Scanner,R,1,2019_Aug_25_1153,SST,3.0.7,None,
go,sst_images/Left_Arrow.bmp,None,1,707,None,0,128,128,128,,1,1,0.5884198590065353,go,0.15000000000000002,0.707,1.7069999999999999,038,Scanner,R,1,2019_Aug_25_1153,SST,3.0.7,None,
go,sst_images/Left_Arrow.bmp,None,1,755,None,0,129,129,129,,1,1,0.5004271130019333,go,0.15000000000000002,0.755,1.755,038,Scanner,R,1,2019_Aug_25_1153,SST,3.0.7,None,
go,sst_images/Left_Arrow.bmp,None,1,750,None,0,130,130,130,,1,1,0.5039715289894957,go,0.15000000000000002,0.75,1.75,038,Scanner,R,1,2019_Aug_25_1153,SST,3.0.7,None,
go,sst_images/Right_Arrow.bmp,None,2,1732,None,0,131,131,131,,2,1,0.5447579209867399,go,0.15000000000000002,1.732,2.732,038,Scanner,R,1,2019_Aug_25_1153,SST,3.0.7,None,
go,sst_images/Left_Arrow.bmp,None,1,865,None,0,132,132,132,,1,1,0.4600270059891045,go,0.15000000000000002,0.865,1.865,038,Scanner,R,1,2019_Aug_25_1153,SST,3.0.7,None,
go,sst_images/Left_Arrow.bmp,None,1,722,None,0,133,133,133,,1,1,0.45609039202099666,go,0.15000000000000002,0.722,1.722,038,Scanner,R,1,2019_Aug_25_1153,SST,3.0.7,None,
stop,sst_images/Right_Arrow.bmp,sst_images/Stop_Arrow.bmp,none,798,None,0,134,134,134,,1,0,0.4535376300045755,stop,0.10000000000000002,0.798,1.7944623699954245,038,Scanner,R,1,2019_Aug_25_1153,SST,3.0.7,None,
go,sst_images/Left_Arrow.bmp,None,1,893,None,0,135,135,135,,None,0,,go,0.10000000000000002,0.893,1.893,038,Scanner,R,1,2019_Aug_25_1153,SST,3.0.7,None,
go,sst_images/Right_Arrow.bmp,None,2,756,None,0,136,136,136,,2,1,0.41482152600656264,go,0.10000000000000002,0.756,1.756,038,Scanner,R,1,2019_Aug_25_1153,SST,3.0.7,None,
go,sst_images/Left_Arrow.bmp,None,1,804,None,0,137,137,137,,1,1,0.5429029229853768,go,0.10000000000000002,0.804,1.804,038,Scanner,R,1,2019_Aug_25_1153,SST,3.0.7,None,
go,sst_images/Left_Arrow.bmp,None,1,700,None,0,138,138,138,,1,1,0.4611865420010872,go,0.10000000000000002,0.7,1.7,038,Scanner,R,1,2019_Aug_25_1153,SST,3.0.7,None,
stop,sst_images/Left_Arrow.bmp,sst_images/Stop_Arrow.bmp,none,752,None,0,139,139,139,,None,1,,stop,0.15000000000000002,0.752,1.752,038,Scanner,R,1,2019_Aug_25_1153,SST,3.0.7,None,
go,sst_images/Right_Arrow.bmp,None,2,727,None,0,140,140,140,,2,1,0.6710891849943437,go,0.15000000000000002,0.727,1.7269999999999999,038,Scanner,R,1,2019_Aug_25_1153,SST,3.0.7,None,
go,sst_images/Right_Arrow.bmp,None,2,736,None,0,141,141,141,,2,1,0.5447694059985224,go,0.15000000000000002,0.736,1.736,038,Scanner,R,1,2019_Aug_25_1153,SST,3.0.7,None,
go,sst_images/Left_Arrow.bmp,None,1,787,None,0,142,142,142,,1,1,0.544989492977038,go,0.15000000000000002,0.787,1.787,038,Scanner,R,1,2019_Aug_25_1153,SST,3.0.7,None,
go,sst_images/Right_Arrow.bmp,None,2,758,None,0,143,143,143,,2,1,0.4211196149990428,go,0.15000000000000002,0.758,1.758,038,Scanner,R,1,2019_Aug_25_1153,SST,3.0.7,None,
go,sst_images/Left_Arrow.bmp,None,1,765,None,0,144,144,144,,None,0,,go,0.15000000000000002,0.765,1.7650000000000001,038,Scanner,R,1,2019_Aug_25_1153,SST,3.0.7,None,
go,sst_images/Left_Arrow.bmp,None,1,717,None,0,145,145,145,,1,1,0.5036859519896097,go,0.15000000000000002,0.717,1.717,038,Scanner,R,1,2019_Aug_25_1153,SST,3.0.7,None,
go,sst_images/Right_Arrow.bmp,None,2,801,None,0,146,146,146,,1,0,0.42041283700382337,go,0.15000000000000002,0.801,1.8010000000000002,038,Scanner,R,1,2019_Aug_25_1153,SST,3.0.7,None,
go,sst_images/Left_Arrow.bmp,None,1,884,None,0,147,147,147,,2,0,0.46040721601457335,go,0.15000000000000002,0.884,1.884,038,Scanner,R,1,2019_Aug_25_1153,SST,3.0.7,None,
go,sst_images/Right_Arrow.bmp,None,2,754,None,0,148,148,148,,2,1,0.46122961697983555,go,0.15000000000000002,0.754,1.754,038,Scanner,R,1,2019_Aug_25_1153,SST,3.0.7,None,
go,sst_images/Left_Arrow.bmp,None,1,927,None,0,149,149,149,,1,1,0.45994330098619685,go,0.15000000000000002,0.927,1.927,038,Scanner,R,1,2019_Aug_25_1153,SST,3.0.7,None,
go,sst_images/Right_Arrow.bmp,None,2,794,None,0,150,150,150,,2,1,0.5463580380019266,go,0.15000000000000002,0.794,1.794,038,Scanner,R,1,2019_Aug_25_1153,SST,3.0.7,None,
go,sst_images/Right_Arrow.bmp,None,2,1381,None,0,151,151,151,,2,1,0.5831908149993978,go,0.15000000000000002,1.381,2.3810000000000002,038,Scanner,R,1,2019_Aug_25_1153,SST,3.0.7,None,
go,sst_images/Left_Arrow.bmp,None,1,1259,None,0,152,152,152,,None,0,,go,0.15000000000000002,1.259,2.259,038,Scanner,R,1,2019_Aug_25_1153,SST,3.0.7,None,
go,sst_images/Right_Arrow.bmp,None,2,717,None,0,153,153,153,,2,1,0.7906484029954299,go,0.15000000000000002,0.717,1.717,038,Scanner,R,1,2019_Aug_25_1153,SST,3.0.7,None,
go,sst_images/Left_Arrow.bmp,None,1,1278,None,0,154,154,154,,1,1,0.45785572900786065,go,0.15000000000000002,1.278,2.278,038,Scanner,R,1,2019_Aug_25_1153,SST,3.0.7,None,
go,sst_images/Right_Arrow.bmp,None,2,1066,None,0,155,155,155,,None,0,,go,0.15000000000000002,1.066,2.066,038,Scanner,R,1,2019_Aug_25_1153,SST,3.0.7,None,
stop,sst_images/Left_Arrow.bmp,sst_images/Stop_Arrow.bmp,none,742,None,0,156,156,156,,None,1,,stop,0.2,0.742,1.7419999999999998,038,Scanner,R,1,2019_Aug_25_1153,SST,3.0.7,None,
go,sst_images/Left_Arrow.bmp,None,1,752,None,0,157,157,157,,1,1,0.5048270440020133,go,0.2,0.752,1.752,038,Scanner,R,1,2019_Aug_25_1153,SST,3.0.7,None,
go,sst_images/Right_Arrow.bmp,None,2,715,None,0,158,158,158,,2,1,0.4956022129917983,go,0.2,0.715,1.7149999999999999,038,Scanner,R,1,2019_Aug_25_1153,SST,3.0.7,None,
go,sst_images/Left_Arrow.bmp,None,1,893,None,0,159,159,159,,1,1,0.4626709519943688,go,0.2,0.893,1.893,038,Scanner,R,1,2019_Aug_25_1153,SST,3.0.7,None,
go,sst_images/Left_Arrow.bmp,None,1,998,None,0,160,160,160,,1,1,0.5457550259889103,go,0.2,0.998,1.998,038,Scanner,R,1,2019_Aug_25_1153,SST,3.0.7,None,
stop,sst_images/Left_Arrow.bmp,sst_images/Stop_Arrow.bmp,none,745,None,0,161,161,161,,None,1,,stop,0.25,0.745,1.7449999999999999,038,Scanner,R,1,2019_Aug_25_1153,SST,3.0.7,None,
go,sst_images/Right_Arrow.bmp,None,2,1453,None,0,162,162,162,,2,1,0.4204694099898916,go,0.25,1.453,2.4530000000000003,038,Scanner,R,1,2019_Aug_25_1153,SST,3.0.7,None,
go,sst_images/Left_Arrow.bmp,None,1,847,None,0,163,163,163,,1,1,0.4171234440000262,go,0.25,0.847,1.847,038,Scanner,R,1,2019_Aug_25_1153,SST,3.0.7,None,
go,sst_images/Right_Arrow.bmp,None,2,1248,None,0,164,164,164,,2,1,0.6694181190105155,go,0.25,1.248,2.248,038,Scanner,R,1,2019_Aug_25_1153,SST,3.0.7,None,
go,sst_images/Right_Arrow.bmp,None,2,829,None,0,165,165,165,,1,0,0.4433763349952642,go,0.25,0.829,1.829,038,Scanner,R,1,2019_Aug_25_1153,SST,3.0.7,None,
go,sst_images/Right_Arrow.bmp,None,2,1113,None,0,166,166,166,,2,1,0.626995653990889,go,0.25,1.113,2.113,038,Scanner,R,1,2019_Aug_25_1153,SST,3.0.7,None,
go,sst_images/Left_Arrow.bmp,None,1,1154,None,0,167,167,167,,1,1,0.584359851985937,go,0.25,1.154,2.154,038,Scanner,R,1,2019_Aug_25_1153,SST,3.0.7,None,
go,sst_images/Right_Arrow.bmp,None,2,928,None,0,168,168,168,,2,1,0.4596684199932497,go,0.25,0.928,1.928,038,Scanner,R,1,2019_Aug_25_1153,SST,3.0.7,None,
go,sst_images/Right_Arrow.bmp,None,2,988,None,0,169,169,169,,1,0,0.42091752600390464,go,0.25,0.988,1.988,038,Scanner,R,1,2019_Aug_25_1153,SST,3.0.7,None,
go,sst_images/Left_Arrow.bmp,None,1,813,None,0,170,170,170,,1,1,0.41975470501347445,go,0.25,0.813,1.813,038,Scanner,R,1,2019_Aug_25_1153,SST,3.0.7,None,
stop,sst_images/Right_Arrow.bmp,sst_images/Stop_Arrow.bmp,none,783,None,0,171,171,171,,None,1,,stop,0.3,0.783,1.7830000000000001,038,Scanner,R,1,2019_Aug_25_1153,SST,3.0.7,None,
go,sst_images/Right_Arrow.bmp,None,2,931,None,0,172,172,172,,2,1,0.545872243004851,go,0.3,0.931,1.931,038,Scanner,R,1,2019_Aug_25_1153,SST,3.0.7,None,
go,sst_images/Right_Arrow.bmp,None,2,946,None,0,173,173,173,,2,1,0.5030867269961163,go,0.3,0.946,1.946,038,Scanner,R,1,2019_Aug_25_1153,SST,3.0.7,None,
go,sst_images/Right_Arrow.bmp,None,2,800,None,0,174,174,174,,2,1,0.4648640920058824,go,0.3,0.8,1.8,038,Scanner,R,1,2019_Aug_25_1153,SST,3.0.7,None,
go,sst_images/Left_Arrow.bmp,None,1,962,None,0,175,175,175,,2,0,0.45807146400329657,go,0.3,0.962,1.962,038,Scanner,R,1,2019_Aug_25_1153,SST,3.0.7,None,
go,sst_images/Right_Arrow.bmp,None,2,740,None,0,176,176,176,,2,1,0.6711552969936747,go,0.3,0.74,1.74,038,Scanner,R,1,2019_Aug_25_1153,SST,3.0.7,None,
go,sst_images/Left_Arrow.bmp,None,1,758,None,0,177,177,177,,1,1,0.46089072700124234,go,0.3,0.758,1.758,038,Scanner,R,1,2019_Aug_25_1153,SST,3.0.7,None,
stop,sst_images/Left_Arrow.bmp,sst_images/Stop_Arrow.bmp,none,798,None,0,178,178,178,,1,0,0.5840455559955444,stop,0.25,0.798,1.8139544440044557,038,Scanner,R,1,2019_Aug_25_1153,SST,3.0.7,None,
go,sst_images/Right_Arrow.bmp,None,2,737,2661.0,0,179,179,179,,2,1,0.5872478740056977,go,0.25,0.737,1.737,038,Scanner,R,1,2019_Aug_25_1153,SST,3.0.7,None,
