trial_type,arrow_1,arrow_2,corrAns,jitter,run_end_fixation,trials.thisRepN,trials.thisTrialN,trials.thisN,trials.thisIndex,randomized TrialOrder,key_response.keys,key_response.corr,key_response.rt,trial_t.routineEndVal,ss_delay,iti_duration,SOA,participant,prac_or_scan,handedness,run,date,expName,psychopyVersion,frameRate,
go,sst_images/Left_Arrow.bmp,None,1,975,None,0,0,0,0,2,1,1,0.6850429229962174,go,0.05,0.975,1.975,038,Scanner,R,2,2019_Aug_25_1200,SST,3.0.7,24.024798878220963,
go,sst_images/Right_Arrow.bmp,None,2,775,None,0,1,1,1,,2,1,0.4616680439794436,go,0.05,0.775,1.775,038,Scanner,R,2,2019_Aug_25_1200,SST,3.0.7,24.024798878220963,
go,sst_images/Right_Arrow.bmp,None,2,773,None,0,2,2,2,,1,0,0.4176393109955825,go,0.05,0.773,1.7730000000000001,038,Scanner,R,2,2019_Aug_25_1200,SST,3.0.7,24.024798878220963,
go,sst_images/Left_Arrow.bmp,None,1,747,None,0,3,3,3,,1,1,0.5027240919880569,go,0.05,0.747,1.7469999999999999,038,Scanner,R,2,2019_Aug_25_1200,SST,3.0.7,24.024798878220963,
stop,sst_images/Right_Arrow.bmp,sst_images/Stop_Arrow.bmp,none,709,None,0,4,4,4,,None,1,,stop,0.1,0.709,1.709,038,Scanner,R,2,2019_Aug_25_1200,SST,3.0.7,24.024798878220963,
go,sst_images/Left_Arrow.bmp,None,1,702,None,0,5,5,5,,1,1,0.5876545840001199,go,0.1,0.702,1.702,038,Scanner,R,2,2019_Aug_25_1200,SST,3.0.7,24.024798878220963,
go,sst_images/Right_Arrow.bmp,None,2,931,None,0,6,6,6,,2,1,0.41728470101952553,go,0.1,0.931,1.931,038,Scanner,R,2,2019_Aug_25_1200,SST,3.0.7,24.024798878220963,
go,sst_images/Left_Arrow.bmp,None,1,1149,None,0,7,7,7,,1,1,0.5035729219962377,go,0.1,1.149,2.149,038,Scanner,R,2,2019_Aug_25_1200,SST,3.0.7,24.024798878220963,
go,sst_images/Right_Arrow.bmp,None,2,748,None,0,8,8,8,,2,1,0.50428059900878,go,0.1,0.748,1.748,038,Scanner,R,2,2019_Aug_25_1200,SST,3.0.7,24.024798878220963,
stop,sst_images/Left_Arrow.bmp,sst_images/Stop_Arrow.bmp,none,848,None,0,9,9,9,,1,0,0.3989543659845367,stop,0.05,0.848,1.8490456340154633,038,Scanner,R,2,2019_Aug_25_1200,SST,3.0.7,24.024798878220963,
go,sst_images/Right_Arrow.bmp,None,2,733,None,0,10,10,10,,2,1,0.5041832169808913,go,0.05,0.733,1.733,038,Scanner,R,2,2019_Aug_25_1200,SST,3.0.7,24.024798878220963,
stop,sst_images/Left_Arrow.bmp,None,None,822,None,0,11,11,11,,1,0,0.3877070129965432,stop,0.0,0.822,1.784292987003457,038,Scanner,R,2,2019_Aug_25_1200,SST,3.0.7,24.024798878220963,
go,sst_images/Left_Arrow.bmp,None,1,1077,None,0,12,12,12,,1,1,0.5020952390041202,go,0.0,1.077,2.077,038,Scanner,R,2,2019_Aug_25_1200,SST,3.0.7,24.024798878220963,
go,sst_images/Right_Arrow.bmp,None,2,895,None,0,13,13,13,,1,0,0.4660997120081447,go,0.0,0.895,1.895,038,Scanner,R,2,2019_Aug_25_1200,SST,3.0.7,24.024798878220963,
go,sst_images/Left_Arrow.bmp,None,1,792,None,0,14,14,14,,1,1,0.4185752850025892,go,0.0,0.792,1.792,038,Scanner,R,2,2019_Aug_25_1200,SST,3.0.7,24.024798878220963,
go,sst_images/Left_Arrow.bmp,None,1,741,None,0,15,15,15,,2,0,0.4202173809753731,go,0.0,0.741,1.741,038,Scanner,R,2,2019_Aug_25_1200,SST,3.0.7,24.024798878220963,
go,sst_images/Left_Arrow.bmp,None,1,923,None,0,16,16,16,,1,1,0.4186028820113279,go,0.0,0.923,1.923,038,Scanner,R,2,2019_Aug_25_1200,SST,3.0.7,24.024798878220963,
stop,sst_images/Right_Arrow.bmp,sst_images/Stop_Arrow.bmp,none,799,None,0,17,17,17,,None,1,,stop,0.0,0.799,1.7990000000000002,038,Scanner,R,2,2019_Aug_25_1200,SST,3.0.7,24.024798878220963,
go,sst_images/Right_Arrow.bmp,None,2,836,None,0,18,18,18,,1,0,0.420603503996972,go,0.0,0.836,1.8359999999999999,038,Scanner,R,2,2019_Aug_25_1200,SST,3.0.7,24.024798878220963,
go,sst_images/Left_Arrow.bmp,None,1,789,None,0,19,19,19,,1,1,0.3814135720022023,go,0.0,0.789,1.7890000000000001,038,Scanner,R,2,2019_Aug_25_1200,SST,3.0.7,24.024798878220963,
go,sst_images/Left_Arrow.bmp,None,1,1843,None,0,20,20,20,,1,1,0.5439645209989976,go,0.0,1.843,2.843,038,Scanner,R,2,2019_Aug_25_1200,SST,3.0.7,24.024798878220963,
go,sst_images/Right_Arrow.bmp,None,2,839,None,0,21,21,21,,2,1,0.37922357898787595,go,0.0,0.839,1.839,038,Scanner,R,2,2019_Aug_25_1200,SST,3.0.7,24.024798878220963,
go,sst_images/Left_Arrow.bmp,None,1,708,None,0,22,22,22,,1,1,0.42097951300092973,go,0.0,0.708,1.708,038,Scanner,R,2,2019_Aug_25_1200,SST,3.0.7,24.024798878220963,
go,sst_images/Right_Arrow.bmp,None,2,1161,None,0,23,23,23,,2,1,0.46301355998730287,go,0.0,1.161,2.161,038,Scanner,R,2,2019_Aug_25_1200,SST,3.0.7,24.024798878220963,
stop,sst_images/Right_Arrow.bmp,sst_images/Stop_Arrow.bmp,none,897,None,0,24,24,24,,None,1,,stop,0.0,0.897,1.897,038,Scanner,R,2,2019_Aug_25_1200,SST,3.0.7,24.024798878220963,
go,sst_images/Left_Arrow.bmp,None,1,1027,None,0,25,25,25,,1,1,0.8350549119932111,go,0.0,1.027,2.027,038,Scanner,R,2,2019_Aug_25_1200,SST,3.0.7,24.024798878220963,
go,sst_images/Right_Arrow.bmp,None,2,724,None,0,26,26,26,,2,1,0.41948612401029095,go,0.0,0.724,1.724,038,Scanner,R,2,2019_Aug_25_1200,SST,3.0.7,24.024798878220963,
stop,sst_images/Left_Arrow.bmp,sst_images/Stop_Arrow.bmp,none,733,None,0,27,27,27,,None,1,,stop,0.0,0.733,1.7329999999999999,038,Scanner,R,2,2019_Aug_25_1200,SST,3.0.7,24.024798878220963,
go,sst_images/Right_Arrow.bmp,None,2,924,None,0,28,28,28,,2,1,0.5044096999918111,go,0.0,0.924,1.924,038,Scanner,R,2,2019_Aug_25_1200,SST,3.0.7,24.024798878220963,
go,sst_images/Left_Arrow.bmp,None,1,719,None,0,29,29,29,,1,1,0.5459024990268517,go,0.0,0.719,1.7189999999999999,038,Scanner,R,2,2019_Aug_25_1200,SST,3.0.7,24.024798878220963,
go,sst_images/Right_Arrow.bmp,None,2,752,None,0,30,30,30,,2,1,0.5458044910046738,go,0.0,0.752,1.752,038,Scanner,R,2,2019_Aug_25_1200,SST,3.0.7,24.024798878220963,
stop,sst_images/Right_Arrow.bmp,sst_images/Stop_Arrow.bmp,none,732,None,0,31,31,31,,None,1,,stop,0.0,0.732,1.732,038,Scanner,R,2,2019_Aug_25_1200,SST,3.0.7,24.024798878220963,
go,sst_images/Right_Arrow.bmp,None,2,813,None,0,32,32,32,,2,1,0.4214406500104815,go,0.0,0.813,1.813,038,Scanner,R,2,2019_Aug_25_1200,SST,3.0.7,24.024798878220963,
go,sst_images/Left_Arrow.bmp,None,1,991,None,0,33,33,33,,1,1,0.4201783080061432,go,0.0,0.991,1.991,038,Scanner,R,2,2019_Aug_25_1200,SST,3.0.7,24.024798878220963,
go,sst_images/Right_Arrow.bmp,None,2,810,None,0,34,34,34,,2,1,0.37754998399759643,go,0.0,0.81,1.81,038,Scanner,R,2,2019_Aug_25_1200,SST,3.0.7,24.024798878220963,
go,sst_images/Left_Arrow.bmp,None,1,852,None,0,35,35,35,,1,1,0.3390652409871109,go,0.0,0.852,1.8519999999999999,038,Scanner,R,2,2019_Aug_25_1200,SST,3.0.7,24.024798878220963,
stop,sst_images/Right_Arrow.bmp,sst_images/Stop_Arrow.bmp,none,1038,None,0,36,36,36,,None,1,,stop,0.0,1.038,2.038,038,Scanner,R,2,2019_Aug_25_1200,SST,3.0.7,24.024798878220963,
go,sst_images/Left_Arrow.bmp,None,1,770,None,0,37,37,37,,1,1,0.5858054530108348,go,0.0,0.77,1.77,038,Scanner,R,2,2019_Aug_25_1200,SST,3.0.7,24.024798878220963,
go,sst_images/Right_Arrow.bmp,None,2,750,None,0,38,38,38,,2,1,0.6277078540006187,go,0.0,0.75,1.75,038,Scanner,R,2,2019_Aug_25_1200,SST,3.0.7,24.024798878220963,
go,sst_images/Right_Arrow.bmp,None,2,879,None,0,39,39,39,,2,1,0.7547548160073347,go,0.0,0.879,1.879,038,Scanner,R,2,2019_Aug_25_1200,SST,3.0.7,24.024798878220963,
go,sst_images/Left_Arrow.bmp,None,1,892,None,0,40,40,40,,1,1,0.4213111949793529,go,0.0,0.892,1.892,038,Scanner,R,2,2019_Aug_25_1200,SST,3.0.7,24.024798878220963,
go,sst_images/Left_Arrow.bmp,None,1,750,None,0,41,41,41,,1,1,0.4593312189972494,go,0.0,0.75,1.75,038,Scanner,R,2,2019_Aug_25_1200,SST,3.0.7,24.024798878220963,
stop,sst_images/Left_Arrow.bmp,sst_images/Stop_Arrow.bmp,none,777,None,0,42,42,42,,None,1,,stop,0.0,0.777,1.777,038,Scanner,R,2,2019_Aug_25_1200,SST,3.0.7,24.024798878220963,
go,sst_images/Right_Arrow.bmp,None,2,1125,None,0,43,43,43,,2,1,0.4207562129886355,go,0.0,1.125,2.125,038,Scanner,R,2,2019_Aug_25_1200,SST,3.0.7,24.024798878220963,
go,sst_images/Left_Arrow.bmp,None,1,1067,None,0,44,44,44,,1,1,0.42105306999292225,go,0.0,1.067,2.067,038,Scanner,R,2,2019_Aug_25_1200,SST,3.0.7,24.024798878220963,
go,sst_images/Left_Arrow.bmp,None,1,746,None,0,45,45,45,,1,1,0.6240596990101039,go,0.0,0.746,1.746,038,Scanner,R,2,2019_Aug_25_1200,SST,3.0.7,24.024798878220963,
go,sst_images/Right_Arrow.bmp,None,2,826,None,0,46,46,46,,2,1,0.7148150229768362,go,0.0,0.826,1.826,038,Scanner,R,2,2019_Aug_25_1200,SST,3.0.7,24.024798878220963,
go,sst_images/Right_Arrow.bmp,None,2,933,None,0,47,47,47,,2,1,0.8388240610074718,go,0.0,0.933,1.933,038,Scanner,R,2,2019_Aug_25_1200,SST,3.0.7,24.024798878220963,
go,sst_images/Right_Arrow.bmp,None,2,1204,None,0,48,48,48,,2,1,0.5035532129986677,go,0.0,1.204,2.2039999999999997,038,Scanner,R,2,2019_Aug_25_1200,SST,3.0.7,24.024798878220963,
go,sst_images/Left_Arrow.bmp,None,1,877,None,0,49,49,49,,1,1,0.41542971500894055,go,0.0,0.877,1.877,038,Scanner,R,2,2019_Aug_25_1200,SST,3.0.7,24.024798878220963,
go,sst_images/Left_Arrow.bmp,None,1,803,None,0,50,50,50,,1,1,0.58791483801906,go,0.0,0.803,1.803,038,Scanner,R,2,2019_Aug_25_1200,SST,3.0.7,24.024798878220963,
go,sst_images/Left_Arrow.bmp,None,1,1076,None,0,51,51,51,,1,1,0.707050723984139,go,0.0,1.076,2.076,038,Scanner,R,2,2019_Aug_25_1200,SST,3.0.7,24.024798878220963,
stop,sst_images/Right_Arrow.bmp,sst_images/Stop_Arrow.bmp,none,724,None,0,52,52,52,,None,1,,stop,0.0,0.724,1.724,038,Scanner,R,2,2019_Aug_25_1200,SST,3.0.7,24.024798878220963,
go,sst_images/Right_Arrow.bmp,None,2,756,None,0,53,53,53,,2,1,0.4602152459847275,go,0.0,0.756,1.756,038,Scanner,R,2,2019_Aug_25_1200,SST,3.0.7,24.024798878220963,
go,sst_images/Right_Arrow.bmp,None,2,1227,None,0,54,54,54,,2,1,0.5857168880174868,go,0.0,1.227,2.2270000000000003,038,Scanner,R,2,2019_Aug_25_1200,SST,3.0.7,24.024798878220963,
go,sst_images/Left_Arrow.bmp,None,1,1311,None,0,55,55,55,,1,1,0.4207580990041606,go,0.0,1.311,2.311,038,Scanner,R,2,2019_Aug_25_1200,SST,3.0.7,24.024798878220963,
go,sst_images/Left_Arrow.bmp,None,1,822,None,0,56,56,56,,1,1,0.45950827398337424,go,0.0,0.822,1.822,038,Scanner,R,2,2019_Aug_25_1200,SST,3.0.7,24.024798878220963,
go,sst_images/Left_Arrow.bmp,None,1,807,None,0,57,57,57,,1,1,0.5451938059995882,go,0.0,0.807,1.807,038,Scanner,R,2,2019_Aug_25_1200,SST,3.0.7,24.024798878220963,
go,sst_images/Right_Arrow.bmp,None,2,852,None,0,58,58,58,,2,1,0.4990942860022187,go,0.0,0.852,1.8519999999999999,038,Scanner,R,2,2019_Aug_25_1200,SST,3.0.7,24.024798878220963,
go,sst_images/Left_Arrow.bmp,None,1,817,None,0,59,59,59,,1,1,0.41957751000882126,go,0.0,0.817,1.817,038,Scanner,R,2,2019_Aug_25_1200,SST,3.0.7,24.024798878220963,
go,sst_images/Left_Arrow.bmp,None,1,803,None,0,60,60,60,,1,1,0.5462677240138873,go,0.0,0.803,1.803,038,Scanner,R,2,2019_Aug_25_1200,SST,3.0.7,24.024798878220963,
go,sst_images/Right_Arrow.bmp,None,2,746,None,0,61,61,61,,2,1,0.5434458609961439,go,0.0,0.746,1.746,038,Scanner,R,2,2019_Aug_25_1200,SST,3.0.7,24.024798878220963,
go,sst_images/Right_Arrow.bmp,None,2,813,None,0,62,62,62,,1,0,0.41957277298206463,go,0.0,0.813,1.813,038,Scanner,R,2,2019_Aug_25_1200,SST,3.0.7,24.024798878220963,
go,sst_images/Left_Arrow.bmp,None,1,966,None,0,63,63,63,,1,1,0.5051036970107816,go,0.0,0.966,1.966,038,Scanner,R,2,2019_Aug_25_1200,SST,3.0.7,24.024798878220963,
go,sst_images/Right_Arrow.bmp,None,2,764,None,0,64,64,64,,2,1,0.41814202500972897,go,0.0,0.764,1.764,038,Scanner,R,2,2019_Aug_25_1200,SST,3.0.7,24.024798878220963,
go,sst_images/Left_Arrow.bmp,None,1,1038,None,0,65,65,65,,1,1,0.4635184099897742,go,0.0,1.038,2.0380000000000003,038,Scanner,R,2,2019_Aug_25_1200,SST,3.0.7,24.024798878220963,
stop,sst_images/Left_Arrow.bmp,sst_images/Stop_Arrow.bmp,none,777,None,0,66,66,66,,None,1,,stop,0.0,0.777,1.777,038,Scanner,R,2,2019_Aug_25_1200,SST,3.0.7,24.024798878220963,
go,sst_images/Right_Arrow.bmp,None,2,949,None,0,67,67,67,,2,1,0.4590933319996111,go,0.0,0.949,1.9489999999999998,038,Scanner,R,2,2019_Aug_25_1200,SST,3.0.7,24.024798878220963,
go,sst_images/Right_Arrow.bmp,None,2,806,None,0,68,68,68,,2,1,0.625967692991253,go,0.0,0.806,1.806,038,Scanner,R,2,2019_Aug_25_1200,SST,3.0.7,24.024798878220963,
go,sst_images/Left_Arrow.bmp,None,1,740,None,0,69,69,69,,1,1,0.45912953800871037,go,0.0,0.74,1.74,038,Scanner,R,2,2019_Aug_25_1200,SST,3.0.7,24.024798878220963,
stop,sst_images/Right_Arrow.bmp,sst_images/Stop_Arrow.bmp,none,807,None,0,70,70,70,,None,1,,stop,0.0,0.807,1.8070000000000002,038,Scanner,R,2,2019_Aug_25_1200,SST,3.0.7,24.024798878220963,
go,sst_images/Right_Arrow.bmp,None,2,744,None,0,71,71,71,,2,1,0.6165380830061622,go,0.0,0.744,1.744,038,Scanner,R,2,2019_Aug_25_1200,SST,3.0.7,24.024798878220963,
go,sst_images/Left_Arrow.bmp,None,1,728,None,0,72,72,72,,1,1,0.544731582980603,go,0.0,0.728,1.728,038,Scanner,R,2,2019_Aug_25_1200,SST,3.0.7,24.024798878220963,
stop,sst_images/Right_Arrow.bmp,sst_images/Stop_Arrow.bmp,none,795,None,0,73,73,73,,None,1,,stop,0.0,0.795,1.7950000000000002,038,Scanner,R,2,2019_Aug_25_1200,SST,3.0.7,24.024798878220963,
go,sst_images/Right_Arrow.bmp,None,2,944,None,0,74,74,74,,2,1,0.5409522929985542,go,0.0,0.944,1.944,038,Scanner,R,2,2019_Aug_25_1200,SST,3.0.7,24.024798878220963,
go,sst_images/Left_Arrow.bmp,None,1,1047,None,0,75,75,75,,1,1,0.528923506004503,go,0.0,1.047,2.0469999999999997,038,Scanner,R,2,2019_Aug_25_1200,SST,3.0.7,24.024798878220963,
go,sst_images/Right_Arrow.bmp,None,2,707,None,0,76,76,76,,2,1,0.4932281369983684,go,0.0,0.707,1.7069999999999999,038,Scanner,R,2,2019_Aug_25_1200,SST,3.0.7,24.024798878220963,
stop,sst_images/Left_Arrow.bmp,sst_images/Stop_Arrow.bmp,none,1066,None,0,77,77,77,,None,1,,stop,0.0,1.066,2.066,038,Scanner,R,2,2019_Aug_25_1200,SST,3.0.7,24.024798878220963,
go,sst_images/Right_Arrow.bmp,None,2,1270,None,0,78,78,78,,2,1,0.6660188600071706,go,0.0,1.27,2.27,038,Scanner,R,2,2019_Aug_25_1200,SST,3.0.7,24.024798878220963,
go,sst_images/Left_Arrow.bmp,None,1,708,None,0,79,79,79,,1,1,0.5808541650185362,go,0.0,0.708,1.708,038,Scanner,R,2,2019_Aug_25_1200,SST,3.0.7,24.024798878220963,
go,sst_images/Left_Arrow.bmp,None,1,724,None,0,80,80,80,,1,1,0.9214680670120288,go,0.0,0.724,1.724,038,Scanner,R,2,2019_Aug_25_1200,SST,3.0.7,24.024798878220963,
go,sst_images/Right_Arrow.bmp,None,2,739,None,0,81,81,81,,2,1,0.5842730260046665,go,0.0,0.739,1.7389999999999999,038,Scanner,R,2,2019_Aug_25_1200,SST,3.0.7,24.024798878220963,
go,sst_images/Right_Arrow.bmp,None,2,750,None,0,82,82,82,,2,1,0.6278694870125037,go,0.0,0.75,1.75,038,Scanner,R,2,2019_Aug_25_1200,SST,3.0.7,24.024798878220963,
stop,sst_images/Right_Arrow.bmp,sst_images/Stop_Arrow.bmp,none,833,None,0,83,83,83,,None,1,,stop,0.0,0.833,1.833,038,Scanner,R,2,2019_Aug_25_1200,SST,3.0.7,24.024798878220963,
go,sst_images/Right_Arrow.bmp,None,2,1062,None,0,84,84,84,,2,1,0.5038324850029312,go,0.0,1.062,2.0620000000000003,038,Scanner,R,2,2019_Aug_25_1200,SST,3.0.7,24.024798878220963,
go,sst_images/Left_Arrow.bmp,None,1,1279,None,0,85,85,85,,1,1,0.45747760799713433,go,0.0,1.279,2.279,038,Scanner,R,2,2019_Aug_25_1200,SST,3.0.7,24.024798878220963,
go,sst_images/Left_Arrow.bmp,None,1,1154,None,0,86,86,86,,1,1,0.6275770990177989,go,0.0,1.154,2.154,038,Scanner,R,2,2019_Aug_25_1200,SST,3.0.7,24.024798878220963,
go,sst_images/Right_Arrow.bmp,None,2,1101,None,0,87,87,87,,2,1,0.541587563988287,go,0.0,1.101,2.101,038,Scanner,R,2,2019_Aug_25_1200,SST,3.0.7,24.024798878220963,
go,sst_images/Left_Arrow.bmp,None,1,993,None,0,88,88,88,,1,1,0.5460940930061042,go,0.0,0.993,1.9929999999999999,038,Scanner,R,2,2019_Aug_25_1200,SST,3.0.7,24.024798878220963,
go,sst_images/Right_Arrow.bmp,None,2,884,None,0,89,89,89,,2,1,0.46315750799840316,go,0.0,0.884,1.884,038,Scanner,R,2,2019_Aug_25_1200,SST,3.0.7,24.024798878220963,
go,sst_images/Left_Arrow.bmp,None,1,932,None,0,90,90,90,,1,1,0.4210800669970922,go,0.0,0.932,1.932,038,Scanner,R,2,2019_Aug_25_1200,SST,3.0.7,24.024798878220963,
stop,sst_images/Right_Arrow.bmp,sst_images/Stop_Arrow.bmp,none,966,None,0,91,91,91,,None,1,,stop,0.0,0.966,1.966,038,Scanner,R,2,2019_Aug_25_1200,SST,3.0.7,24.024798878220963,
go,sst_images/Right_Arrow.bmp,None,2,898,None,0,92,92,92,,2,1,0.7097020469955169,go,0.0,0.898,1.8980000000000001,038,Scanner,R,2,2019_Aug_25_1200,SST,3.0.7,24.024798878220963,
go,sst_images/Left_Arrow.bmp,None,1,922,None,0,93,93,93,,1,1,0.6277790449967142,go,0.0,0.922,1.9220000000000002,038,Scanner,R,2,2019_Aug_25_1200,SST,3.0.7,24.024798878220963,
go,sst_images/Left_Arrow.bmp,None,1,834,None,0,94,94,94,,None,0,,go,0.0,0.834,1.834,038,Scanner,R,2,2019_Aug_25_1200,SST,3.0.7,24.024798878220963,
stop,sst_images/Left_Arrow.bmp,sst_images/Stop_Arrow.bmp,none,782,None,0,95,95,95,,None,1,,stop,0.0,0.782,1.782,038,Scanner,R,2,2019_Aug_25_1200,SST,3.0.7,24.024798878220963,
go,sst_images/Left_Arrow.bmp,None,1,806,None,0,96,96,96,,1,1,0.6300702659937087,go,0.0,0.806,1.806,038,Scanner,R,2,2019_Aug_25_1200,SST,3.0.7,24.024798878220963,
go,sst_images/Right_Arrow.bmp,None,2,804,None,0,97,97,97,,2,1,0.5005519039987121,go,0.0,0.804,1.804,038,Scanner,R,2,2019_Aug_25_1200,SST,3.0.7,24.024798878220963,
go,sst_images/Left_Arrow.bmp,None,1,1001,None,0,98,98,98,,1,1,0.5062375870184042,go,0.0,1.001,2.001,038,Scanner,R,2,2019_Aug_25_1200,SST,3.0.7,24.024798878220963,
go,sst_images/Right_Arrow.bmp,None,2,990,None,0,99,99,99,,None,0,,go,0.0,0.99,1.99,038,Scanner,R,2,2019_Aug_25_1200,SST,3.0.7,24.024798878220963,
stop,sst_images/Left_Arrow.bmp,sst_images/Stop_Arrow.bmp,none,803,None,0,100,100,100,,None,1,,stop,0.0,0.803,1.8030000000000002,038,Scanner,R,2,2019_Aug_25_1200,SST,3.0.7,24.024798878220963,
go,sst_images/Right_Arrow.bmp,None,2,755,None,0,101,101,101,,2,1,0.46073416800936684,go,0.0,0.755,1.755,038,Scanner,R,2,2019_Aug_25_1200,SST,3.0.7,24.024798878220963,
go,sst_images/Left_Arrow.bmp,None,1,1222,None,0,102,102,102,,1,1,0.46434189900173806,go,0.0,1.222,2.222,038,Scanner,R,2,2019_Aug_25_1200,SST,3.0.7,24.024798878220963,
go,sst_images/Right_Arrow.bmp,None,2,752,None,0,103,103,103,,None,0,,go,0.0,0.752,1.752,038,Scanner,R,2,2019_Aug_25_1200,SST,3.0.7,24.024798878220963,
go,sst_images/Right_Arrow.bmp,None,2,1001,None,0,104,104,104,,None,0,,go,0.0,1.001,2.001,038,Scanner,R,2,2019_Aug_25_1200,SST,3.0.7,24.024798878220963,
go,sst_images/Left_Arrow.bmp,None,1,1372,None,0,105,105,105,,None,0,,go,0.0,1.372,2.372,038,Scanner,R,2,2019_Aug_25_1200,SST,3.0.7,24.024798878220963,
go,sst_images/Left_Arrow.bmp,None,1,782,None,0,106,106,106,,None,0,,go,0.0,0.782,1.782,038,Scanner,R,2,2019_Aug_25_1200,SST,3.0.7,24.024798878220963,
stop,sst_images/Right_Arrow.bmp,sst_images/Stop_Arrow.bmp,none,737,None,0,107,107,107,,None,1,,stop,0.0,0.737,1.7369999999999999,038,Scanner,R,2,2019_Aug_25_1200,SST,3.0.7,24.024798878220963,
go,sst_images/Right_Arrow.bmp,None,2,951,None,0,108,108,108,,None,0,,go,0.0,0.951,1.951,038,Scanner,R,2,2019_Aug_25_1200,SST,3.0.7,24.024798878220963,
go,sst_images/Right_Arrow.bmp,None,2,735,None,0,109,109,109,,None,0,,go,0.0,0.735,1.7349999999999999,038,Scanner,R,2,2019_Aug_25_1200,SST,3.0.7,24.024798878220963,
stop,sst_images/Left_Arrow.bmp,sst_images/Stop_Arrow.bmp,none,838,None,0,110,110,110,,None,1,,stop,0.0,0.838,1.8379999999999999,038,Scanner,R,2,2019_Aug_25_1200,SST,3.0.7,24.024798878220963,
go,sst_images/Left_Arrow.bmp,None,1,1006,None,0,111,111,111,,1,1,0.4618617899832316,go,0.0,1.006,2.0060000000000002,038,Scanner,R,2,2019_Aug_25_1200,SST,3.0.7,24.024798878220963,
go,sst_images/Right_Arrow.bmp,None,2,780,None,0,112,112,112,,2,1,0.502447649021633,go,0.0,0.78,1.78,038,Scanner,R,2,2019_Aug_25_1200,SST,3.0.7,24.024798878220963,
go,sst_images/Left_Arrow.bmp,None,1,1109,None,0,113,113,113,,1,1,0.4647770820010919,go,0.0,1.109,2.109,038,Scanner,R,2,2019_Aug_25_1200,SST,3.0.7,24.024798878220963,
stop,sst_images/Left_Arrow.bmp,sst_images/Stop_Arrow.bmp,none,1062,None,0,114,114,114,,None,1,,stop,0.0,1.062,2.062,038,Scanner,R,2,2019_Aug_25_1200,SST,3.0.7,24.024798878220963,
go,sst_images/Right_Arrow.bmp,None,2,898,None,0,115,115,115,,1,0,0.37816506199305877,go,0.0,0.898,1.8980000000000001,038,Scanner,R,2,2019_Aug_25_1200,SST,3.0.7,24.024798878220963,
go,sst_images/Left_Arrow.bmp,None,1,926,None,0,116,116,116,,1,1,0.46408883697586134,go,0.0,0.926,1.9260000000000002,038,Scanner,R,2,2019_Aug_25_1200,SST,3.0.7,24.024798878220963,
go,sst_images/Right_Arrow.bmp,None,2,702,None,0,117,117,117,,2,1,0.5835227270144969,go,0.0,0.702,1.702,038,Scanner,R,2,2019_Aug_25_1200,SST,3.0.7,24.024798878220963,
stop,sst_images/Right_Arrow.bmp,sst_images/Stop_Arrow.bmp,none,748,None,0,118,118,118,,None,1,,stop,0.0,0.748,1.748,038,Scanner,R,2,2019_Aug_25_1200,SST,3.0.7,24.024798878220963,
go,sst_images/Left_Arrow.bmp,None,1,823,None,0,119,119,119,,1,1,0.4209781500103418,go,0.0,0.823,1.823,038,Scanner,R,2,2019_Aug_25_1200,SST,3.0.7,24.024798878220963,
go,sst_images/Right_Arrow.bmp,None,2,918,None,0,120,120,120,,2,1,0.5022376710257959,go,0.0,0.918,1.9180000000000001,038,Scanner,R,2,2019_Aug_25_1200,SST,3.0.7,24.024798878220963,
go,sst_images/Left_Arrow.bmp,None,1,1074,None,0,121,121,121,,1,1,0.5883275640080683,go,0.0,1.074,2.074,038,Scanner,R,2,2019_Aug_25_1200,SST,3.0.7,24.024798878220963,
go,sst_images/Right_Arrow.bmp,None,2,783,None,0,122,122,122,,2,1,0.6278021890029777,go,0.0,0.783,1.783,038,Scanner,R,2,2019_Aug_25_1200,SST,3.0.7,24.024798878220963,
go,sst_images/Left_Arrow.bmp,None,1,719,None,0,123,123,123,,1,1,0.46299663998070173,go,0.0,0.719,1.7189999999999999,038,Scanner,R,2,2019_Aug_25_1200,SST,3.0.7,24.024798878220963,
stop,sst_images/Left_Arrow.bmp,sst_images/Stop_Arrow.bmp,none,817,None,0,124,124,124,,None,1,,stop,0.0,0.817,1.817,038,Scanner,R,2,2019_Aug_25_1200,SST,3.0.7,24.024798878220963,
go,sst_images/Right_Arrow.bmp,None,2,737,None,0,125,125,125,,2,1,0.5889682580018416,go,0.0,0.737,1.737,038,Scanner,R,2,2019_Aug_25_1200,SST,3.0.7,24.024798878220963,
go,sst_images/Right_Arrow.bmp,None,2,741,None,0,126,126,126,,1,0,0.41843957401579246,go,0.0,0.741,1.741,038,Scanner,R,2,2019_Aug_25_1200,SST,3.0.7,24.024798878220963,
go,sst_images/Left_Arrow.bmp,None,1,834,None,0,127,127,127,,1,1,0.46012853999854997,go,0.0,0.834,1.834,038,Scanner,R,2,2019_Aug_25_1200,SST,3.0.7,24.024798878220963,
go,sst_images/Left_Arrow.bmp,None,1,859,None,0,128,128,128,,1,1,0.5850918609939981,go,0.0,0.859,1.859,038,Scanner,R,2,2019_Aug_25_1200,SST,3.0.7,24.024798878220963,
go,sst_images/Left_Arrow.bmp,None,1,825,None,0,129,129,129,,None,0,,go,0.0,0.825,1.825,038,Scanner,R,2,2019_Aug_25_1200,SST,3.0.7,24.024798878220963,
stop,sst_images/Right_Arrow.bmp,sst_images/Stop_Arrow.bmp,none,773,None,0,130,130,130,,None,1,,stop,0.0,0.773,1.773,038,Scanner,R,2,2019_Aug_25_1200,SST,3.0.7,24.024798878220963,
go,sst_images/Right_Arrow.bmp,None,2,751,None,0,131,131,131,,2,1,0.5019375139963813,go,0.0,0.751,1.751,038,Scanner,R,2,2019_Aug_25_1200,SST,3.0.7,24.024798878220963,
go,sst_images/Left_Arrow.bmp,None,1,965,None,0,132,132,132,,1,1,0.5457395319826901,go,0.0,0.965,1.9649999999999999,038,Scanner,R,2,2019_Aug_25_1200,SST,3.0.7,24.024798878220963,
go,sst_images/Left_Arrow.bmp,None,1,1260,None,0,133,133,133,,1,1,0.588129391981056,go,0.0,1.26,2.26,038,Scanner,R,2,2019_Aug_25_1200,SST,3.0.7,24.024798878220963,
go,sst_images/Left_Arrow.bmp,None,1,1016,None,0,134,134,134,,None,0,,go,0.0,1.016,2.016,038,Scanner,R,2,2019_Aug_25_1200,SST,3.0.7,24.024798878220963,
go,sst_images/Right_Arrow.bmp,None,2,1049,None,0,135,135,135,,None,0,,go,0.0,1.049,2.049,038,Scanner,R,2,2019_Aug_25_1200,SST,3.0.7,24.024798878220963,
go,sst_images/Left_Arrow.bmp,None,1,732,None,0,136,136,136,,None,0,,go,0.0,0.732,1.732,038,Scanner,R,2,2019_Aug_25_1200,SST,3.0.7,24.024798878220963,
stop,sst_images/Right_Arrow.bmp,sst_images/Stop_Arrow.bmp,none,1211,None,0,137,137,137,,None,1,,stop,0.0,1.211,2.211,038,Scanner,R,2,2019_Aug_25_1200,SST,3.0.7,24.024798878220963,
go,sst_images/Left_Arrow.bmp,None,1,864,None,0,138,138,138,,1,1,0.7945960270008072,go,0.0,0.864,1.8639999999999999,038,Scanner,R,2,2019_Aug_25_1200,SST,3.0.7,24.024798878220963,
go,sst_images/Right_Arrow.bmp,None,2,877,None,0,139,139,139,,2,1,0.7532041490194388,go,0.0,0.877,1.877,038,Scanner,R,2,2019_Aug_25_1200,SST,3.0.7,24.024798878220963,
go,sst_images/Right_Arrow.bmp,None,2,1038,None,0,140,140,140,,2,1,0.710420615010662,go,0.0,1.038,2.0380000000000003,038,Scanner,R,2,2019_Aug_25_1200,SST,3.0.7,24.024798878220963,
go,sst_images/Left_Arrow.bmp,None,1,744,None,0,141,141,141,,1,1,0.5042203079792671,go,0.0,0.744,1.744,038,Scanner,R,2,2019_Aug_25_1200,SST,3.0.7,24.024798878220963,
stop,sst_images/Left_Arrow.bmp,sst_images/Stop_Arrow.bmp,none,741,None,0,142,142,142,,None,1,,stop,0.0,0.741,1.7409999999999999,038,Scanner,R,2,2019_Aug_25_1200,SST,3.0.7,24.024798878220963,
go,sst_images/Right_Arrow.bmp,None,2,748,None,0,143,143,143,,2,1,0.6304662210168317,go,0.0,0.748,1.748,038,Scanner,R,2,2019_Aug_25_1200,SST,3.0.7,24.024798878220963,
go,sst_images/Left_Arrow.bmp,None,1,822,None,0,144,144,144,,1,1,0.6272678380191792,go,0.0,0.822,1.822,038,Scanner,R,2,2019_Aug_25_1200,SST,3.0.7,24.024798878220963,
go,sst_images/Left_Arrow.bmp,None,1,916,None,0,145,145,145,,None,0,,go,0.0,0.916,1.916,038,Scanner,R,2,2019_Aug_25_1200,SST,3.0.7,24.024798878220963,
go,sst_images/Right_Arrow.bmp,None,2,715,None,0,146,146,146,,None,0,,go,0.0,0.715,1.7149999999999999,038,Scanner,R,2,2019_Aug_25_1200,SST,3.0.7,24.024798878220963,
stop,sst_images/Left_Arrow.bmp,sst_images/Stop_Arrow.bmp,none,1726,None,0,147,147,147,,None,1,,stop,0.0,1.726,2.726,038,Scanner,R,2,2019_Aug_25_1200,SST,3.0.7,24.024798878220963,
go,sst_images/Left_Arrow.bmp,None,1,782,None,0,148,148,148,,1,1,0.5851875059888698,go,0.0,0.782,1.782,038,Scanner,R,2,2019_Aug_25_1200,SST,3.0.7,24.024798878220963,
go,sst_images/Right_Arrow.bmp,None,2,1726,None,0,149,149,149,,2,1,0.9173989980190527,go,0.0,1.726,2.726,038,Scanner,R,2,2019_Aug_25_1200,SST,3.0.7,24.024798878220963,
go,sst_images/Left_Arrow.bmp,None,1,953,None,0,150,150,150,,1,1,0.627642717998242,go,0.0,0.953,1.9529999999999998,038,Scanner,R,2,2019_Aug_25_1200,SST,3.0.7,24.024798878220963,
go,sst_images/Right_Arrow.bmp,None,2,844,None,0,151,151,151,,None,0,,go,0.0,0.844,1.8439999999999999,038,Scanner,R,2,2019_Aug_25_1200,SST,3.0.7,24.024798878220963,
go,sst_images/Right_Arrow.bmp,None,2,800,None,0,152,152,152,,1,0,0.4183078450150788,go,0.0,0.8,1.8,038,Scanner,R,2,2019_Aug_25_1200,SST,3.0.7,24.024798878220963,
go,sst_images/Left_Arrow.bmp,None,1,1025,None,0,153,153,153,,1,1,0.49963283599936403,go,0.0,1.025,2.025,038,Scanner,R,2,2019_Aug_25_1200,SST,3.0.7,24.024798878220963,
go,sst_images/Right_Arrow.bmp,None,2,818,None,0,154,154,154,,2,1,0.5439439990150277,go,0.0,0.818,1.818,038,Scanner,R,2,2019_Aug_25_1200,SST,3.0.7,24.024798878220963,
go,sst_images/Left_Arrow.bmp,None,1,861,None,0,155,155,155,,1,1,0.42194578298949637,go,0.0,0.861,1.861,038,Scanner,R,2,2019_Aug_25_1200,SST,3.0.7,24.024798878220963,
go,sst_images/Right_Arrow.bmp,None,2,1006,None,0,156,156,156,,2,1,0.506022601010045,go,0.0,1.006,2.0060000000000002,038,Scanner,R,2,2019_Aug_25_1200,SST,3.0.7,24.024798878220963,
go,sst_images/Left_Arrow.bmp,None,1,939,None,0,157,157,157,,1,1,0.42177025400451384,go,0.0,0.939,1.939,038,Scanner,R,2,2019_Aug_25_1200,SST,3.0.7,24.024798878220963,
stop,sst_images/Left_Arrow.bmp,sst_images/Stop_Arrow.bmp,none,703,None,0,158,158,158,,None,1,,stop,0.0,0.703,1.703,038,Scanner,R,2,2019_Aug_25_1200,SST,3.0.7,24.024798878220963,
go,sst_images/Right_Arrow.bmp,None,2,1064,None,0,159,159,159,,2,1,0.7515049350040499,go,0.0,1.064,2.064,038,Scanner,R,2,2019_Aug_25_1200,SST,3.0.7,24.024798878220963,
go,sst_images/Left_Arrow.bmp,None,1,1694,None,0,160,160,160,,1,1,0.545958763017552,go,0.0,1.694,2.694,038,Scanner,R,2,2019_Aug_25_1200,SST,3.0.7,24.024798878220963,
go,sst_images/Left_Arrow.bmp,None,1,936,None,0,161,161,161,,1,1,0.5441826090100221,go,0.0,0.936,1.936,038,Scanner,R,2,2019_Aug_25_1200,SST,3.0.7,24.024798878220963,
go,sst_images/Right_Arrow.bmp,None,2,725,None,0,162,162,162,,2,1,0.49906185700092465,go,0.0,0.725,1.725,038,Scanner,R,2,2019_Aug_25_1200,SST,3.0.7,24.024798878220963,
go,sst_images/Left_Arrow.bmp,None,1,777,None,0,163,163,163,,1,1,0.46170822699787095,go,0.0,0.777,1.7770000000000001,038,Scanner,R,2,2019_Aug_25_1200,SST,3.0.7,24.024798878220963,
go,sst_images/Right_Arrow.bmp,None,2,1070,None,0,164,164,164,,2,1,0.42103990097530186,go,0.0,1.07,2.0700000000000003,038,Scanner,R,2,2019_Aug_25_1200,SST,3.0.7,24.024798878220963,
go,sst_images/Right_Arrow.bmp,None,2,1006,None,0,165,165,165,,1,0,0.3773284259950742,go,0.0,1.006,2.0060000000000002,038,Scanner,R,2,2019_Aug_25_1200,SST,3.0.7,24.024798878220963,
go,sst_images/Right_Arrow.bmp,None,2,799,None,0,166,166,166,,1,0,0.57429885797319,go,0.0,0.799,1.799,038,Scanner,R,2,2019_Aug_25_1200,SST,3.0.7,24.024798878220963,
go,sst_images/Left_Arrow.bmp,None,1,769,None,0,167,167,167,,1,1,0.5451035749865696,go,0.0,0.769,1.7690000000000001,038,Scanner,R,2,2019_Aug_25_1200,SST,3.0.7,24.024798878220963,
go,sst_images/Right_Arrow.bmp,None,2,709,None,0,168,168,168,,2,1,0.6709628149983473,go,0.0,0.709,1.709,038,Scanner,R,2,2019_Aug_25_1200,SST,3.0.7,24.024798878220963,
stop,sst_images/Right_Arrow.bmp,sst_images/Stop_Arrow.bmp,none,834,None,0,169,169,169,,None,1,,stop,0.0,0.834,1.8339999999999999,038,Scanner,R,2,2019_Aug_25_1200,SST,3.0.7,24.024798878220963,
go,sst_images/Right_Arrow.bmp,None,2,742,None,0,170,170,170,,None,0,,go,0.0,0.742,1.742,038,Scanner,R,2,2019_Aug_25_1200,SST,3.0.7,24.024798878220963,
go,sst_images/Left_Arrow.bmp,None,1,1211,None,0,171,171,171,,1,1,0.4615433609869797,go,0.0,1.211,2.2110000000000003,038,Scanner,R,2,2019_Aug_25_1200,SST,3.0.7,24.024798878220963,
go,sst_images/Right_Arrow.bmp,None,2,885,None,0,172,172,172,,2,1,0.3791011610010173,go,0.0,0.885,1.885,038,Scanner,R,2,2019_Aug_25_1200,SST,3.0.7,24.024798878220963,
go,sst_images/Right_Arrow.bmp,None,2,1120,None,0,173,173,173,,2,1,0.5961877999943681,go,0.0,1.12,2.12,038,Scanner,R,2,2019_Aug_25_1200,SST,3.0.7,24.024798878220963,
go,sst_images/Right_Arrow.bmp,None,2,1103,None,0,174,174,174,,2,1,0.4203797150112223,go,0.0,1.103,2.1029999999999998,038,Scanner,R,2,2019_Aug_25_1200,SST,3.0.7,24.024798878220963,
go,sst_images/Left_Arrow.bmp,None,1,717,None,0,175,175,175,,1,1,0.6280878619872965,go,0.0,0.717,1.717,038,Scanner,R,2,2019_Aug_25_1200,SST,3.0.7,24.024798878220963,
go,sst_images/Right_Arrow.bmp,None,2,897,None,0,176,176,176,,2,1,0.48847149100038223,go,0.0,0.897,1.897,038,Scanner,R,2,2019_Aug_25_1200,SST,3.0.7,24.024798878220963,
stop,sst_images/Left_Arrow.bmp,sst_images/Stop_Arrow.bmp,none,744,None,0,177,177,177,,None,1,,stop,0.0,0.744,1.744,038,Scanner,R,2,2019_Aug_25_1200,SST,3.0.7,24.024798878220963,
go,sst_images/Left_Arrow.bmp,None,1,805,None,0,178,178,178,,1,1,0.4207175930205267,go,0.0,0.805,1.8050000000000002,038,Scanner,R,2,2019_Aug_25_1200,SST,3.0.7,24.024798878220963,
go,sst_images/Right_Arrow.bmp,None,2,793,5096.0,0,179,179,179,,2,1,0.6702959930116776,go,0.0,0.793,1.7930000000000001,038,Scanner,R,2,2019_Aug_25_1200,SST,3.0.7,24.024798878220963,
