trial_type,arrow_1,arrow_2,corrAns,jitter,run_end_fixation,trials.thisRepN,trials.thisTrialN,trials.thisN,trials.thisIndex,randomized TrialOrder,key_response.keys,key_response.corr,key_response.rt,trial_t.routineEndVal,ss_delay,iti_duration,SOA,participant,prac_or_scan,handedness,run,date,expName,psychopyVersion,frameRate,
go,sst_images/Left_Arrow.bmp,None,1,1044,None,0,0,0,0,4,1,1,0.7723610859975452,go,0.05,1.044,2.044,039,Scanner,R,1,2019_Aug_22_0956,SST,3.0.7,23.99778684746008,
go,sst_images/Right_Arrow.bmp,None,2,1179,None,0,1,1,1,,2,1,0.4621243519941345,go,0.05,1.179,2.1790000000000003,039,Scanner,R,1,2019_Aug_22_0956,SST,3.0.7,23.99778684746008,
go,sst_images/Right_Arrow.bmp,None,2,710,None,0,2,2,2,,2,1,0.5447365660074865,go,0.05,0.71,1.71,039,Scanner,R,1,2019_Aug_22_0956,SST,3.0.7,23.99778684746008,
stop,sst_images/Right_Arrow.bmp,sst_images/Stop_Arrow.bmp,none,1194,None,0,3,3,3,,None,1,,stop,0.1,1.194,2.194,039,Scanner,R,1,2019_Aug_22_0956,SST,3.0.7,23.99778684746008,
go,sst_images/Left_Arrow.bmp,None,1,1418,None,0,4,4,4,,1,1,0.6281665749993408,go,0.1,1.418,2.418,039,Scanner,R,1,2019_Aug_22_0956,SST,3.0.7,23.99778684746008,
go,sst_images/Left_Arrow.bmp,None,1,757,None,0,5,5,5,,1,1,0.4628170210053213,go,0.1,0.757,1.7570000000000001,039,Scanner,R,1,2019_Aug_22_0956,SST,3.0.7,23.99778684746008,
go,sst_images/Right_Arrow.bmp,None,2,735,None,0,6,6,6,,2,1,0.5012330369936535,go,0.1,0.735,1.7349999999999999,039,Scanner,R,1,2019_Aug_22_0956,SST,3.0.7,23.99778684746008,
go,sst_images/Left_Arrow.bmp,None,1,874,None,0,7,7,7,,1,1,0.5889811939996434,go,0.1,0.874,1.874,039,Scanner,R,1,2019_Aug_22_0956,SST,3.0.7,23.99778684746008,
go,sst_images/Right_Arrow.bmp,None,2,821,None,0,8,8,8,,2,1,0.421929905001889,go,0.1,0.821,1.821,039,Scanner,R,1,2019_Aug_22_0956,SST,3.0.7,23.99778684746008,
go,sst_images/Right_Arrow.bmp,None,2,722,None,0,9,9,9,,2,1,0.5041662289877422,go,0.1,0.722,1.722,039,Scanner,R,1,2019_Aug_22_0956,SST,3.0.7,23.99778684746008,
go,sst_images/Left_Arrow.bmp,None,1,940,None,0,10,10,10,,1,1,0.45834214199567214,go,0.1,0.94,1.94,039,Scanner,R,1,2019_Aug_22_0956,SST,3.0.7,23.99778684746008,
go,sst_images/Right_Arrow.bmp,None,2,885,None,0,11,11,11,,2,1,0.37922071499633603,go,0.1,0.885,1.885,039,Scanner,R,1,2019_Aug_22_0956,SST,3.0.7,23.99778684746008,
go,sst_images/Left_Arrow.bmp,None,1,755,None,0,12,12,12,,1,1,0.4210138439957518,go,0.1,0.755,1.755,039,Scanner,R,1,2019_Aug_22_0956,SST,3.0.7,23.99778684746008,
go,sst_images/Left_Arrow.bmp,None,1,903,None,0,13,13,13,,1,1,0.545189158001449,go,0.1,0.903,1.903,039,Scanner,R,1,2019_Aug_22_0956,SST,3.0.7,23.99778684746008,
go,sst_images/Left_Arrow.bmp,None,1,844,None,0,14,14,14,,1,1,0.5042255860025762,go,0.1,0.844,1.8439999999999999,039,Scanner,R,1,2019_Aug_22_0956,SST,3.0.7,23.99778684746008,
go,sst_images/Right_Arrow.bmp,None,2,1135,None,0,15,15,15,,2,1,0.4626217559998622,go,0.1,1.135,2.135,039,Scanner,R,1,2019_Aug_22_0956,SST,3.0.7,23.99778684746008,
stop,sst_images/Left_Arrow.bmp,sst_images/Stop_Arrow.bmp,none,795,None,0,16,16,16,,1,0,0.4006738169991877,stop,0.05,0.795,1.7943261830008124,039,Scanner,R,1,2019_Aug_22_0956,SST,3.0.7,23.99778684746008,
go,sst_images/Left_Arrow.bmp,None,1,1016,None,0,17,17,17,,1,1,0.37948832899564877,go,0.05,1.016,2.016,039,Scanner,R,1,2019_Aug_22_0956,SST,3.0.7,23.99778684746008,
go,sst_images/Left_Arrow.bmp,None,1,721,None,0,18,18,18,,1,1,0.5453586379881017,go,0.05,0.721,1.721,039,Scanner,R,1,2019_Aug_22_0956,SST,3.0.7,23.99778684746008,
go,sst_images/Right_Arrow.bmp,None,2,835,None,0,19,19,19,,2,1,0.46272135799517855,go,0.05,0.835,1.835,039,Scanner,R,1,2019_Aug_22_0956,SST,3.0.7,23.99778684746008,
stop,sst_images/Left_Arrow.bmp,sst_images/Stop_Arrow.bmp,none,706,None,0,20,20,20,,None,1,,stop,0.1,0.706,1.706,039,Scanner,R,1,2019_Aug_22_0956,SST,3.0.7,23.99778684746008,
go,sst_images/Left_Arrow.bmp,None,1,877,None,0,21,21,21,,1,1,0.46330359000421595,go,0.1,0.877,1.877,039,Scanner,R,1,2019_Aug_22_0956,SST,3.0.7,23.99778684746008,
go,sst_images/Right_Arrow.bmp,None,2,755,None,0,22,22,22,,2,1,0.5060937359958189,go,0.1,0.755,1.755,039,Scanner,R,1,2019_Aug_22_0956,SST,3.0.7,23.99778684746008,
go,sst_images/Left_Arrow.bmp,None,1,706,None,0,23,23,23,,1,1,0.45956363501318265,go,0.1,0.706,1.706,039,Scanner,R,1,2019_Aug_22_0956,SST,3.0.7,23.99778684746008,
stop,sst_images/Right_Arrow.bmp,sst_images/Stop_Arrow.bmp,none,711,None,0,24,24,24,,2,0,0.40146266600640956,stop,0.05,0.711,1.7095373339935904,039,Scanner,R,1,2019_Aug_22_0956,SST,3.0.7,23.99778684746008,
go,sst_images/Right_Arrow.bmp,None,2,826,None,0,25,25,25,,2,1,0.5465219100005925,go,0.05,0.826,1.826,039,Scanner,R,1,2019_Aug_22_0956,SST,3.0.7,23.99778684746008,
go,sst_images/Right_Arrow.bmp,None,2,897,None,0,26,26,26,,2,1,0.5457386130001396,go,0.05,0.897,1.897,039,Scanner,R,1,2019_Aug_22_0956,SST,3.0.7,23.99778684746008,
go,sst_images/Left_Arrow.bmp,None,1,826,None,0,27,27,27,,1,1,0.5427654790109955,go,0.05,0.826,1.826,039,Scanner,R,1,2019_Aug_22_0956,SST,3.0.7,23.99778684746008,
go,sst_images/Right_Arrow.bmp,None,2,1271,None,0,28,28,28,,2,1,0.5052212120062904,go,0.05,1.271,2.271,039,Scanner,R,1,2019_Aug_22_0956,SST,3.0.7,23.99778684746008,
go,sst_images/Right_Arrow.bmp,None,2,809,None,0,29,29,29,,2,1,0.5856508919969201,go,0.05,0.809,1.8090000000000002,039,Scanner,R,1,2019_Aug_22_0956,SST,3.0.7,23.99778684746008,
go,sst_images/Left_Arrow.bmp,None,1,759,None,0,30,30,30,,1,1,0.4629236960026901,go,0.05,0.759,1.759,039,Scanner,R,1,2019_Aug_22_0956,SST,3.0.7,23.99778684746008,
stop,sst_images/Right_Arrow.bmp,sst_images/Stop_Arrow.bmp,none,754,None,0,31,31,31,,None,1,,stop,0.1,0.754,1.754,039,Scanner,R,1,2019_Aug_22_0956,SST,3.0.7,23.99778684746008,
go,sst_images/Right_Arrow.bmp,None,2,753,None,0,32,32,32,,2,1,0.5464752249972662,go,0.1,0.753,1.7530000000000001,039,Scanner,R,1,2019_Aug_22_0956,SST,3.0.7,23.99778684746008,
go,sst_images/Left_Arrow.bmp,None,1,797,None,0,33,33,33,,1,1,0.505945086988504,go,0.1,0.797,1.7970000000000002,039,Scanner,R,1,2019_Aug_22_0956,SST,3.0.7,23.99778684746008,
go,sst_images/Left_Arrow.bmp,None,1,703,None,0,34,34,34,,1,1,0.5896273880061926,go,0.1,0.703,1.7029999999999998,039,Scanner,R,1,2019_Aug_22_0956,SST,3.0.7,23.99778684746008,
stop,sst_images/Left_Arrow.bmp,sst_images/Stop_Arrow.bmp,none,815,None,0,35,35,35,,None,1,,stop,0.15000000000000002,0.815,1.8150000000000002,039,Scanner,R,1,2019_Aug_22_0956,SST,3.0.7,23.99778684746008,
go,sst_images/Right_Arrow.bmp,None,2,888,None,0,36,36,36,,2,1,0.5057654580014059,go,0.15000000000000002,0.888,1.888,039,Scanner,R,1,2019_Aug_22_0956,SST,3.0.7,23.99778684746008,
go,sst_images/Right_Arrow.bmp,None,2,871,None,0,37,37,37,,2,1,0.5465011240012245,go,0.15000000000000002,0.871,1.871,039,Scanner,R,1,2019_Aug_22_0956,SST,3.0.7,23.99778684746008,
go,sst_images/Left_Arrow.bmp,None,1,765,None,0,38,38,38,,1,1,0.5457240370014915,go,0.15000000000000002,0.765,1.7650000000000001,039,Scanner,R,1,2019_Aug_22_0956,SST,3.0.7,23.99778684746008,
go,sst_images/Left_Arrow.bmp,None,1,1192,None,0,39,39,39,,1,1,0.5004116950003663,go,0.15000000000000002,1.192,2.192,039,Scanner,R,1,2019_Aug_22_0956,SST,3.0.7,23.99778684746008,
go,sst_images/Right_Arrow.bmp,None,2,987,None,0,40,40,40,,2,1,0.5034815320104826,go,0.15000000000000002,0.987,1.987,039,Scanner,R,1,2019_Aug_22_0956,SST,3.0.7,23.99778684746008,
go,sst_images/Left_Arrow.bmp,None,1,1024,None,0,41,41,41,,1,1,0.7545314300077735,go,0.15000000000000002,1.024,2.024,039,Scanner,R,1,2019_Aug_22_0956,SST,3.0.7,23.99778684746008,
stop,sst_images/Right_Arrow.bmp,sst_images/Stop_Arrow.bmp,none,828,None,0,42,42,42,,None,1,,stop,0.2,0.828,1.828,039,Scanner,R,1,2019_Aug_22_0956,SST,3.0.7,23.99778684746008,
go,sst_images/Left_Arrow.bmp,None,1,1469,None,0,43,43,43,,1,1,0.5449751330015715,go,0.2,1.469,2.4690000000000003,039,Scanner,R,1,2019_Aug_22_0956,SST,3.0.7,23.99778684746008,
go,sst_images/Right_Arrow.bmp,None,2,991,None,0,44,44,44,,2,1,0.5033843340061139,go,0.2,0.991,1.991,039,Scanner,R,1,2019_Aug_22_0956,SST,3.0.7,23.99778684746008,
go,sst_images/Right_Arrow.bmp,None,2,885,None,0,45,45,45,,2,1,0.5401203759975033,go,0.2,0.885,1.885,039,Scanner,R,1,2019_Aug_22_0956,SST,3.0.7,23.99778684746008,
go,sst_images/Right_Arrow.bmp,None,2,1179,None,0,46,46,46,,2,1,0.5432311170006869,go,0.2,1.179,2.1790000000000003,039,Scanner,R,1,2019_Aug_22_0956,SST,3.0.7,23.99778684746008,
go,sst_images/Left_Arrow.bmp,None,1,791,None,0,47,47,47,,1,1,0.5044364250061335,go,0.2,0.791,1.791,039,Scanner,R,1,2019_Aug_22_0956,SST,3.0.7,23.99778684746008,
go,sst_images/Left_Arrow.bmp,None,1,761,None,0,48,48,48,,1,1,0.545768298994517,go,0.2,0.761,1.7610000000000001,039,Scanner,R,1,2019_Aug_22_0956,SST,3.0.7,23.99778684746008,
stop,sst_images/Right_Arrow.bmp,sst_images/Stop_Arrow.bmp,none,769,None,0,49,49,49,,2,0,0.5420158190099755,stop,0.15000000000000002,0.769,1.7269841809900246,039,Scanner,R,1,2019_Aug_22_0956,SST,3.0.7,23.99778684746008,
go,sst_images/Left_Arrow.bmp,None,1,1144,None,0,50,50,50,,1,1,0.46073081200302113,go,0.15000000000000002,1.144,2.144,039,Scanner,R,1,2019_Aug_22_0956,SST,3.0.7,23.99778684746008,
go,sst_images/Right_Arrow.bmp,None,2,723,None,0,51,51,51,,2,1,0.6693452280014753,go,0.15000000000000002,0.723,1.7229999999999999,039,Scanner,R,1,2019_Aug_22_0956,SST,3.0.7,23.99778684746008,
go,sst_images/Right_Arrow.bmp,None,2,1001,None,0,52,52,52,,2,1,0.6277049409982283,go,0.15000000000000002,1.001,2.001,039,Scanner,R,1,2019_Aug_22_0956,SST,3.0.7,23.99778684746008,
stop,sst_images/Left_Arrow.bmp,sst_images/Stop_Arrow.bmp,none,1174,None,0,53,53,53,,None,1,,stop,0.2,1.174,2.1739999999999995,039,Scanner,R,1,2019_Aug_22_0956,SST,3.0.7,23.99778684746008,
go,sst_images/Left_Arrow.bmp,None,1,818,None,0,54,54,54,,1,1,0.5041284530016128,go,0.2,0.818,1.818,039,Scanner,R,1,2019_Aug_22_0956,SST,3.0.7,23.99778684746008,
go,sst_images/Left_Arrow.bmp,None,1,1073,None,0,55,55,55,,1,1,0.5460992699954659,go,0.2,1.073,2.073,039,Scanner,R,1,2019_Aug_22_0956,SST,3.0.7,23.99778684746008,
go,sst_images/Left_Arrow.bmp,None,1,828,None,0,56,56,56,,1,1,0.6271806410077261,go,0.2,0.828,1.8279999999999998,039,Scanner,R,1,2019_Aug_22_0956,SST,3.0.7,23.99778684746008,
go,sst_images/Right_Arrow.bmp,None,2,815,None,0,57,57,57,,2,1,0.45894360198872164,go,0.2,0.815,1.815,039,Scanner,R,1,2019_Aug_22_0956,SST,3.0.7,23.99778684746008,
stop,sst_images/Right_Arrow.bmp,sst_images/Stop_Arrow.bmp,none,747,None,0,58,58,58,,None,1,,stop,0.25,0.747,1.7469999999999999,039,Scanner,R,1,2019_Aug_22_0956,SST,3.0.7,23.99778684746008,
go,sst_images/Left_Arrow.bmp,None,1,838,None,0,59,59,59,,1,1,0.506711655005347,go,0.25,0.838,1.838,039,Scanner,R,1,2019_Aug_22_0956,SST,3.0.7,23.99778684746008,
go,sst_images/Left_Arrow.bmp,None,1,1165,None,0,60,60,60,,1,1,0.5455276379943825,go,0.25,1.165,2.165,039,Scanner,R,1,2019_Aug_22_0956,SST,3.0.7,23.99778684746008,
go,sst_images/Right_Arrow.bmp,None,2,905,None,0,61,61,61,,2,1,0.7087058750039432,go,0.25,0.905,1.905,039,Scanner,R,1,2019_Aug_22_0956,SST,3.0.7,23.99778684746008,
go,sst_images/Right_Arrow.bmp,None,2,871,None,0,62,62,62,,2,1,0.6782264170033159,go,0.25,0.871,1.871,039,Scanner,R,1,2019_Aug_22_0956,SST,3.0.7,23.99778684746008,
stop,sst_images/Left_Arrow.bmp,sst_images/Stop_Arrow.bmp,none,732,None,0,63,63,63,,None,1,,stop,0.3,0.732,1.732,039,Scanner,R,1,2019_Aug_22_0956,SST,3.0.7,23.99778684746008,
go,sst_images/Left_Arrow.bmp,None,1,881,None,0,64,64,64,,1,1,0.5041690209909575,go,0.3,0.881,1.881,039,Scanner,R,1,2019_Aug_22_0956,SST,3.0.7,23.99778684746008,
go,sst_images/Right_Arrow.bmp,None,2,1183,None,0,65,65,65,,2,1,0.5449122510035522,go,0.3,1.183,2.183,039,Scanner,R,1,2019_Aug_22_0956,SST,3.0.7,23.99778684746008,
go,sst_images/Left_Arrow.bmp,None,1,1671,None,0,66,66,66,,1,1,0.5035564999998314,go,0.3,1.671,2.6710000000000003,039,Scanner,R,1,2019_Aug_22_0956,SST,3.0.7,23.99778684746008,
go,sst_images/Right_Arrow.bmp,None,2,1080,None,0,67,67,67,,2,1,0.6277419079997344,go,0.3,1.08,2.08,039,Scanner,R,1,2019_Aug_22_0956,SST,3.0.7,23.99778684746008,
stop,sst_images/Right_Arrow.bmp,sst_images/Stop_Arrow.bmp,none,832,None,0,68,68,68,,2,0,0.622570984007325,stop,0.25,0.832,1.809429015992675,039,Scanner,R,1,2019_Aug_22_0956,SST,3.0.7,23.99778684746008,
go,sst_images/Right_Arrow.bmp,None,2,1179,None,0,69,69,69,,2,1,0.5035361499903956,go,0.25,1.179,2.1790000000000003,039,Scanner,R,1,2019_Aug_22_0956,SST,3.0.7,23.99778684746008,
go,sst_images/Left_Arrow.bmp,None,1,1000,None,0,70,70,70,,1,1,0.545508996990975,go,0.25,1.0,2.0,039,Scanner,R,1,2019_Aug_22_0956,SST,3.0.7,23.99778684746008,
go,sst_images/Right_Arrow.bmp,None,2,1226,None,0,71,71,71,,2,1,0.5887732609990053,go,0.25,1.226,2.226,039,Scanner,R,1,2019_Aug_22_0956,SST,3.0.7,23.99778684746008,
go,sst_images/Left_Arrow.bmp,None,1,769,None,0,72,72,72,,1,1,0.5446427629940445,go,0.25,0.769,1.7690000000000001,039,Scanner,R,1,2019_Aug_22_0956,SST,3.0.7,23.99778684746008,
go,sst_images/Right_Arrow.bmp,None,2,880,None,0,73,73,73,,2,1,0.46057242099777795,go,0.25,0.88,1.88,039,Scanner,R,1,2019_Aug_22_0956,SST,3.0.7,23.99778684746008,
stop,sst_images/Right_Arrow.bmp,sst_images/Stop_Arrow.bmp,none,719,None,0,74,74,74,,2,0,0.4854061820078641,stop,0.2,0.719,1.7835938179921358,039,Scanner,R,1,2019_Aug_22_0956,SST,3.0.7,23.99778684746008,
go,sst_images/Left_Arrow.bmp,None,1,758,None,0,75,75,75,,1,1,0.46194737699988764,go,0.2,0.758,1.758,039,Scanner,R,1,2019_Aug_22_0956,SST,3.0.7,23.99778684746008,
go,sst_images/Right_Arrow.bmp,None,2,717,None,0,76,76,76,,2,1,0.5837904070067452,go,0.2,0.717,1.717,039,Scanner,R,1,2019_Aug_22_0956,SST,3.0.7,23.99778684746008,
go,sst_images/Right_Arrow.bmp,None,2,837,None,0,77,77,77,,2,1,0.5836122689943295,go,0.2,0.837,1.837,039,Scanner,R,1,2019_Aug_22_0956,SST,3.0.7,23.99778684746008,
go,sst_images/Left_Arrow.bmp,None,1,732,None,0,78,78,78,,1,1,0.7150884400034556,go,0.2,0.732,1.732,039,Scanner,R,1,2019_Aug_22_0956,SST,3.0.7,23.99778684746008,
go,sst_images/Left_Arrow.bmp,None,1,1130,None,0,79,79,79,,1,1,0.671532666994608,go,0.2,1.13,2.13,039,Scanner,R,1,2019_Aug_22_0956,SST,3.0.7,23.99778684746008,
go,sst_images/Right_Arrow.bmp,None,2,1418,None,0,80,80,80,,2,1,0.6268952589889523,go,0.2,1.418,2.418,039,Scanner,R,1,2019_Aug_22_0956,SST,3.0.7,23.99778684746008,
go,sst_images/Right_Arrow.bmp,None,2,813,None,0,81,81,81,,2,1,0.5462916450051125,go,0.2,0.813,1.813,039,Scanner,R,1,2019_Aug_22_0956,SST,3.0.7,23.99778684746008,
go,sst_images/Right_Arrow.bmp,None,2,1396,None,0,82,82,82,,2,1,0.5027135120035382,go,0.2,1.396,2.396,039,Scanner,R,1,2019_Aug_22_0956,SST,3.0.7,23.99778684746008,
go,sst_images/Left_Arrow.bmp,None,1,1044,None,0,83,83,83,,1,1,0.5452310410037171,go,0.2,1.044,2.044,039,Scanner,R,1,2019_Aug_22_0956,SST,3.0.7,23.99778684746008,
go,sst_images/Left_Arrow.bmp,None,1,926,None,0,84,84,84,,1,1,0.5852663969999412,go,0.2,0.926,1.9260000000000002,039,Scanner,R,1,2019_Aug_22_0956,SST,3.0.7,23.99778684746008,
stop,sst_images/Left_Arrow.bmp,sst_images/Stop_Arrow.bmp,none,1671,None,0,85,85,85,,None,1,,stop,0.25,1.671,2.671,039,Scanner,R,1,2019_Aug_22_0956,SST,3.0.7,23.99778684746008,
go,sst_images/Right_Arrow.bmp,None,2,780,None,0,86,86,86,,2,1,0.5035365099902265,go,0.25,0.78,1.78,039,Scanner,R,1,2019_Aug_22_0956,SST,3.0.7,23.99778684746008,
go,sst_images/Left_Arrow.bmp,None,1,818,None,0,87,87,87,,1,1,0.5456039440032328,go,0.25,0.818,1.818,039,Scanner,R,1,2019_Aug_22_0956,SST,3.0.7,23.99778684746008,
go,sst_images/Right_Arrow.bmp,None,2,828,None,0,88,88,88,,2,1,0.5463455620047171,go,0.25,0.828,1.8279999999999998,039,Scanner,R,1,2019_Aug_22_0956,SST,3.0.7,23.99778684746008,
stop,sst_images/Right_Arrow.bmp,sst_images/Stop_Arrow.bmp,none,721,None,0,89,89,89,,2,0,0.5726089819945628,stop,0.2,0.721,1.6983910180054373,039,Scanner,R,1,2019_Aug_22_0956,SST,3.0.7,23.99778684746008,
go,sst_images/Left_Arrow.bmp,None,1,871,None,0,90,90,90,,1,1,0.5042465779988561,go,0.2,0.871,1.871,039,Scanner,R,1,2019_Aug_22_0956,SST,3.0.7,23.99778684746008,
go,sst_images/Right_Arrow.bmp,None,2,822,None,0,91,91,91,,2,1,0.505017292991397,go,0.2,0.822,1.822,039,Scanner,R,1,2019_Aug_22_0956,SST,3.0.7,23.99778684746008,
stop,sst_images/Right_Arrow.bmp,sst_images/Stop_Arrow.bmp,none,719,None,0,92,92,92,,None,1,,stop,0.25,0.719,1.7189999999999999,039,Scanner,R,1,2019_Aug_22_0956,SST,3.0.7,23.99778684746008,
go,sst_images/Left_Arrow.bmp,None,1,718,None,0,93,93,93,,1,1,0.5035042779927608,go,0.25,0.718,1.718,039,Scanner,R,1,2019_Aug_22_0956,SST,3.0.7,23.99778684746008,
go,sst_images/Left_Arrow.bmp,None,1,719,None,0,94,94,94,,1,1,0.5443554480007151,go,0.25,0.719,1.7189999999999999,039,Scanner,R,1,2019_Aug_22_0956,SST,3.0.7,23.99778684746008,
go,sst_images/Left_Arrow.bmp,None,1,1303,None,0,95,95,95,,1,1,0.5464652770024259,go,0.25,1.303,2.303,039,Scanner,R,1,2019_Aug_22_0956,SST,3.0.7,23.99778684746008,
go,sst_images/Right_Arrow.bmp,None,2,702,None,0,96,96,96,,2,1,0.5464377500029514,go,0.25,0.702,1.702,039,Scanner,R,1,2019_Aug_22_0956,SST,3.0.7,23.99778684746008,
go,sst_images/Left_Arrow.bmp,None,1,767,None,0,97,97,97,,1,1,0.5455760110053234,go,0.25,0.767,1.767,039,Scanner,R,1,2019_Aug_22_0956,SST,3.0.7,23.99778684746008,
go,sst_images/Right_Arrow.bmp,None,2,766,None,0,98,98,98,,2,1,0.5462220800109208,go,0.25,0.766,1.766,039,Scanner,R,1,2019_Aug_22_0956,SST,3.0.7,23.99778684746008,
go,sst_images/Right_Arrow.bmp,None,2,807,None,0,99,99,99,,2,1,0.5450492270028917,go,0.25,0.807,1.807,039,Scanner,R,1,2019_Aug_22_0956,SST,3.0.7,23.99778684746008,
go,sst_images/Left_Arrow.bmp,None,1,852,None,0,100,100,100,,1,1,0.7526270200032741,go,0.25,0.852,1.8519999999999999,039,Scanner,R,1,2019_Aug_22_0956,SST,3.0.7,23.99778684746008,
go,sst_images/Right_Arrow.bmp,None,2,865,None,0,101,101,101,,2,1,0.5466255159990396,go,0.25,0.865,1.865,039,Scanner,R,1,2019_Aug_22_0956,SST,3.0.7,23.99778684746008,
stop,sst_images/Left_Arrow.bmp,sst_images/Stop_Arrow.bmp,none,713,None,0,102,102,102,,None,1,,stop,0.3,0.713,1.7129999999999999,039,Scanner,R,1,2019_Aug_22_0956,SST,3.0.7,23.99778684746008,
go,sst_images/Right_Arrow.bmp,None,2,816,None,0,103,103,103,,2,1,0.5040035499987425,go,0.3,0.816,1.8159999999999998,039,Scanner,R,1,2019_Aug_22_0956,SST,3.0.7,23.99778684746008,
go,sst_images/Left_Arrow.bmp,None,1,714,None,0,104,104,104,,1,1,0.5017383139929734,go,0.3,0.714,1.714,039,Scanner,R,1,2019_Aug_22_0956,SST,3.0.7,23.99778684746008,
go,sst_images/Left_Arrow.bmp,None,1,1238,None,0,105,105,105,,1,1,0.6263465339870891,go,0.3,1.238,2.238,039,Scanner,R,1,2019_Aug_22_0956,SST,3.0.7,23.99778684746008,
go,sst_images/Right_Arrow.bmp,None,2,779,None,0,106,106,106,,2,1,0.6282172229985008,go,0.3,0.779,1.779,039,Scanner,R,1,2019_Aug_22_0956,SST,3.0.7,23.99778684746008,
go,sst_images/Right_Arrow.bmp,None,2,709,None,0,107,107,107,,2,1,0.5461383779911557,go,0.3,0.709,1.709,039,Scanner,R,1,2019_Aug_22_0956,SST,3.0.7,23.99778684746008,
go,sst_images/Left_Arrow.bmp,None,1,888,None,0,108,108,108,,1,1,0.6280226710077841,go,0.3,0.888,1.888,039,Scanner,R,1,2019_Aug_22_0956,SST,3.0.7,23.99778684746008,
go,sst_images/Right_Arrow.bmp,None,2,760,None,0,109,109,109,,2,1,0.5048096769896802,go,0.3,0.76,1.76,039,Scanner,R,1,2019_Aug_22_0956,SST,3.0.7,23.99778684746008,
stop,sst_images/Left_Arrow.bmp,sst_images/Stop_Arrow.bmp,none,993,None,0,110,110,110,,1,0,0.5425764480023645,stop,0.25,0.993,2.0504235519976355,039,Scanner,R,1,2019_Aug_22_0956,SST,3.0.7,23.99778684746008,
go,sst_images/Left_Arrow.bmp,None,1,713,None,0,111,111,111,,1,1,0.4177671810030006,go,0.25,0.713,1.713,039,Scanner,R,1,2019_Aug_22_0956,SST,3.0.7,23.99778684746008,
go,sst_images/Right_Arrow.bmp,None,2,722,None,0,112,112,112,,2,1,0.5020092320046388,go,0.25,0.722,1.722,039,Scanner,R,1,2019_Aug_22_0956,SST,3.0.7,23.99778684746008,
go,sst_images/Left_Arrow.bmp,None,1,886,None,0,113,113,113,,1,1,0.5045511510106735,go,0.25,0.886,1.8860000000000001,039,Scanner,R,1,2019_Aug_22_0956,SST,3.0.7,23.99778684746008,
go,sst_images/Right_Arrow.bmp,None,2,767,None,0,114,114,114,,2,1,0.5459211150009651,go,0.25,0.767,1.767,039,Scanner,R,1,2019_Aug_22_0956,SST,3.0.7,23.99778684746008,
go,sst_images/Left_Arrow.bmp,None,1,719,None,0,115,115,115,,1,1,0.543595789000392,go,0.25,0.719,1.7189999999999999,039,Scanner,R,1,2019_Aug_22_0956,SST,3.0.7,23.99778684746008,
go,sst_images/Right_Arrow.bmp,None,2,1132,None,0,116,116,116,,2,1,0.4986870049906429,go,0.25,1.132,2.1319999999999997,039,Scanner,R,1,2019_Aug_22_0956,SST,3.0.7,23.99778684746008,
go,sst_images/Left_Arrow.bmp,None,1,962,None,0,117,117,117,,1,1,0.6292818850051844,go,0.25,0.962,1.962,039,Scanner,R,1,2019_Aug_22_0956,SST,3.0.7,23.99778684746008,
stop,sst_images/Right_Arrow.bmp,sst_images/Stop_Arrow.bmp,none,1371,None,0,118,118,118,,None,1,,stop,0.3,1.371,2.3709999999999996,039,Scanner,R,1,2019_Aug_22_0956,SST,3.0.7,23.99778684746008,
go,sst_images/Right_Arrow.bmp,None,2,1613,None,0,119,119,119,,2,1,0.5045684299984714,go,0.3,1.613,2.613,039,Scanner,R,1,2019_Aug_22_0956,SST,3.0.7,23.99778684746008,
go,sst_images/Left_Arrow.bmp,None,1,1000,None,0,120,120,120,,1,1,0.6287022149917902,go,0.3,1.0,2.0,039,Scanner,R,1,2019_Aug_22_0956,SST,3.0.7,23.99778684746008,
go,sst_images/Right_Arrow.bmp,None,2,770,None,0,121,121,121,,2,1,0.5026572539936751,go,0.3,0.77,1.77,039,Scanner,R,1,2019_Aug_22_0956,SST,3.0.7,23.99778684746008,
go,sst_images/Right_Arrow.bmp,None,2,756,None,0,122,122,122,,2,1,0.5451281600107905,go,0.3,0.756,1.756,039,Scanner,R,1,2019_Aug_22_0956,SST,3.0.7,23.99778684746008,
go,sst_images/Left_Arrow.bmp,None,1,2000,None,0,123,123,123,,1,1,0.5023834399908083,go,0.3,2.0,3.0,039,Scanner,R,1,2019_Aug_22_0956,SST,3.0.7,23.99778684746008,
go,sst_images/Left_Arrow.bmp,None,1,971,None,0,124,124,124,,1,1,0.5867977110028733,go,0.3,0.971,1.971,039,Scanner,R,1,2019_Aug_22_0956,SST,3.0.7,23.99778684746008,
stop,sst_images/Left_Arrow.bmp,sst_images/Stop_Arrow.bmp,none,777,None,0,125,125,125,,1,0,0.5415581669949461,stop,0.25,0.777,1.8354418330050541,039,Scanner,R,1,2019_Aug_22_0956,SST,3.0.7,23.99778684746008,
go,sst_images/Left_Arrow.bmp,None,1,1146,None,0,126,126,126,,1,1,0.5021549769880949,go,0.25,1.146,2.146,039,Scanner,R,1,2019_Aug_22_0956,SST,3.0.7,23.99778684746008,
go,sst_images/Right_Arrow.bmp,None,2,819,None,0,127,127,127,,2,1,0.505693537008483,go,0.25,0.819,1.819,039,Scanner,R,1,2019_Aug_22_0956,SST,3.0.7,23.99778684746008,
go,sst_images/Left_Arrow.bmp,None,1,1136,None,0,128,128,128,,1,1,0.5028432549879653,go,0.25,1.136,2.136,039,Scanner,R,1,2019_Aug_22_0956,SST,3.0.7,23.99778684746008,
go,sst_images/Left_Arrow.bmp,None,1,1050,None,0,129,129,129,,1,1,0.5845831399929011,go,0.25,1.05,2.05,039,Scanner,R,1,2019_Aug_22_0956,SST,3.0.7,23.99778684746008,
go,sst_images/Left_Arrow.bmp,None,1,1246,None,0,130,130,130,,1,1,0.5469970740086865,go,0.25,1.246,2.246,039,Scanner,R,1,2019_Aug_22_0956,SST,3.0.7,23.99778684746008,
go,sst_images/Right_Arrow.bmp,None,2,871,None,0,131,131,131,,2,1,0.7468844929971965,go,0.25,0.871,1.871,039,Scanner,R,1,2019_Aug_22_0956,SST,3.0.7,23.99778684746008,
go,sst_images/Left_Arrow.bmp,None,1,754,None,0,132,132,132,,1,1,0.5036744749959325,go,0.25,0.754,1.754,039,Scanner,R,1,2019_Aug_22_0956,SST,3.0.7,23.99778684746008,
stop,sst_images/Left_Arrow.bmp,sst_images/Stop_Arrow.bmp,none,940,None,0,133,133,133,,1,0,0.5674677510105539,stop,0.2,0.94,1.922532248989446,039,Scanner,R,1,2019_Aug_22_0956,SST,3.0.7,23.99778684746008,
go,sst_images/Left_Arrow.bmp,None,1,862,None,0,134,134,134,,1,1,0.4609906089899596,go,0.2,0.862,1.862,039,Scanner,R,1,2019_Aug_22_0956,SST,3.0.7,23.99778684746008,
go,sst_images/Right_Arrow.bmp,None,2,720,None,0,135,135,135,,2,1,0.5047336840070784,go,0.2,0.72,1.72,039,Scanner,R,1,2019_Aug_22_0956,SST,3.0.7,23.99778684746008,
stop,sst_images/Right_Arrow.bmp,sst_images/Stop_Arrow.bmp,none,753,None,0,136,136,136,,None,1,,stop,0.25,0.753,1.753,039,Scanner,R,1,2019_Aug_22_0956,SST,3.0.7,23.99778684746008,
go,sst_images/Right_Arrow.bmp,None,2,993,None,0,137,137,137,,2,1,0.5884001539961901,go,0.25,0.993,1.9929999999999999,039,Scanner,R,1,2019_Aug_22_0956,SST,3.0.7,23.99778684746008,
go,sst_images/Left_Arrow.bmp,None,1,869,None,0,138,138,138,,1,1,0.7102712409978267,go,0.25,0.869,1.869,039,Scanner,R,1,2019_Aug_22_0956,SST,3.0.7,23.99778684746008,
stop,sst_images/Left_Arrow.bmp,sst_images/Stop_Arrow.bmp,none,700,None,0,139,139,139,,1,0,0.5245490179950139,stop,0.2,0.7,1.7254509820049861,039,Scanner,R,1,2019_Aug_22_0956,SST,3.0.7,23.99778684746008,
go,sst_images/Right_Arrow.bmp,None,2,777,None,0,140,140,140,,2,1,0.543873115995666,go,0.2,0.777,1.7770000000000001,039,Scanner,R,1,2019_Aug_22_0956,SST,3.0.7,23.99778684746008,
go,sst_images/Left_Arrow.bmp,None,1,740,None,0,141,141,141,,1,1,0.5451452550041722,go,0.2,0.74,1.74,039,Scanner,R,1,2019_Aug_22_0956,SST,3.0.7,23.99778684746008,
stop,sst_images/Right_Arrow.bmp,sst_images/Stop_Arrow.bmp,none,1050,None,0,142,142,142,,2,0,0.5386744139977964,stop,0.15000000000000002,1.05,2.0113255860022035,039,Scanner,R,1,2019_Aug_22_0956,SST,3.0.7,23.99778684746008,
go,sst_images/Left_Arrow.bmp,None,1,719,None,0,143,143,143,,1,1,0.4639257669914514,go,0.15000000000000002,0.719,1.7189999999999999,039,Scanner,R,1,2019_Aug_22_0956,SST,3.0.7,23.99778684746008,
go,sst_images/Right_Arrow.bmp,None,2,758,None,0,144,144,144,,2,1,0.5839544730115449,go,0.15000000000000002,0.758,1.758,039,Scanner,R,1,2019_Aug_22_0956,SST,3.0.7,23.99778684746008,
go,sst_images/Left_Arrow.bmp,None,1,757,None,0,145,145,145,,1,1,0.62880268500885,go,0.15000000000000002,0.757,1.7570000000000001,039,Scanner,R,1,2019_Aug_22_0956,SST,3.0.7,23.99778684746008,
stop,sst_images/Right_Arrow.bmp,sst_images/Stop_Arrow.bmp,none,818,None,0,146,146,146,,None,1,,stop,0.2,0.818,1.8179999999999998,039,Scanner,R,1,2019_Aug_22_0956,SST,3.0.7,23.99778684746008,
go,sst_images/Right_Arrow.bmp,None,2,708,None,0,147,147,147,,2,1,0.5053701199940406,go,0.2,0.708,1.708,039,Scanner,R,1,2019_Aug_22_0956,SST,3.0.7,23.99778684746008,
go,sst_images/Left_Arrow.bmp,None,1,795,None,0,148,148,148,,1,1,0.5042320319917053,go,0.2,0.795,1.795,039,Scanner,R,1,2019_Aug_22_0956,SST,3.0.7,23.99778684746008,
go,sst_images/Right_Arrow.bmp,None,2,1260,None,0,149,149,149,,2,1,0.4642087209940655,go,0.2,1.26,2.26,039,Scanner,R,1,2019_Aug_22_0956,SST,3.0.7,23.99778684746008,
stop,sst_images/Left_Arrow.bmp,sst_images/Stop_Arrow.bmp,none,866,None,0,150,150,150,,None,1,,stop,0.25,0.866,1.8659999999999999,039,Scanner,R,1,2019_Aug_22_0956,SST,3.0.7,23.99778684746008,
go,sst_images/Right_Arrow.bmp,None,2,736,None,0,151,151,151,,2,1,0.5459106430062093,go,0.25,0.736,1.736,039,Scanner,R,1,2019_Aug_22_0956,SST,3.0.7,23.99778684746008,
go,sst_images/Left_Arrow.bmp,None,1,717,None,0,152,152,152,,1,1,0.4638180899928557,go,0.25,0.717,1.717,039,Scanner,R,1,2019_Aug_22_0956,SST,3.0.7,23.99778684746008,
go,sst_images/Right_Arrow.bmp,None,2,945,None,0,153,153,153,,2,1,0.6294696309923893,go,0.25,0.945,1.9449999999999998,039,Scanner,R,1,2019_Aug_22_0956,SST,3.0.7,23.99778684746008,
go,sst_images/Left_Arrow.bmp,None,1,768,None,0,154,154,154,,1,1,0.4620246300037252,go,0.25,0.768,1.768,039,Scanner,R,1,2019_Aug_22_0956,SST,3.0.7,23.99778684746008,
go,sst_images/Right_Arrow.bmp,None,2,810,None,0,155,155,155,,2,1,0.46364181299577467,go,0.25,0.81,1.81,039,Scanner,R,1,2019_Aug_22_0956,SST,3.0.7,23.99778684746008,
go,sst_images/Left_Arrow.bmp,None,1,860,None,0,156,156,156,,1,1,0.5431350839935476,go,0.25,0.86,1.8599999999999999,039,Scanner,R,1,2019_Aug_22_0956,SST,3.0.7,23.99778684746008,
stop,sst_images/Left_Arrow.bmp,sst_images/Stop_Arrow.bmp,none,753,None,0,157,157,157,,None,1,,stop,0.3,0.753,1.753,039,Scanner,R,1,2019_Aug_22_0956,SST,3.0.7,23.99778684746008,
go,sst_images/Right_Arrow.bmp,None,2,705,None,0,158,158,158,,2,1,0.5036103899910813,go,0.3,0.705,1.705,039,Scanner,R,1,2019_Aug_22_0956,SST,3.0.7,23.99778684746008,
go,sst_images/Left_Arrow.bmp,None,1,707,None,0,159,159,159,,1,1,0.5051213389961049,go,0.3,0.707,1.7069999999999999,039,Scanner,R,1,2019_Aug_22_0956,SST,3.0.7,23.99778684746008,
stop,sst_images/Left_Arrow.bmp,sst_images/Stop_Arrow.bmp,none,809,None,0,160,160,160,,1,0,0.5296352680015843,stop,0.25,0.809,1.879364731998416,039,Scanner,R,1,2019_Aug_22_0956,SST,3.0.7,23.99778684746008,
go,sst_images/Left_Arrow.bmp,None,1,715,None,0,161,161,161,,1,1,0.46256218099733815,go,0.25,0.715,1.7149999999999999,039,Scanner,R,1,2019_Aug_22_0956,SST,3.0.7,23.99778684746008,
go,sst_images/Right_Arrow.bmp,None,2,778,None,0,162,162,162,,2,1,0.5016810310044093,go,0.25,0.778,1.778,039,Scanner,R,1,2019_Aug_22_0956,SST,3.0.7,23.99778684746008,
go,sst_images/Left_Arrow.bmp,None,1,948,None,0,163,163,163,,1,1,0.5464408040134003,go,0.25,0.948,1.948,039,Scanner,R,1,2019_Aug_22_0956,SST,3.0.7,23.99778684746008,
stop,sst_images/Right_Arrow.bmp,sst_images/Stop_Arrow.bmp,none,940,None,0,164,164,164,,2,0,0.44895799600635655,stop,0.2,0.94,2.041042003993643,039,Scanner,R,1,2019_Aug_22_0956,SST,3.0.7,23.99778684746008,
go,sst_images/Right_Arrow.bmp,None,2,716,None,0,165,165,165,,2,1,0.5057732779969228,go,0.2,0.716,1.716,039,Scanner,R,1,2019_Aug_22_0956,SST,3.0.7,23.99778684746008,
go,sst_images/Right_Arrow.bmp,None,2,1237,None,0,166,166,166,,2,1,0.585484114009887,go,0.2,1.237,2.237,039,Scanner,R,1,2019_Aug_22_0956,SST,3.0.7,23.99778684746008,
go,sst_images/Right_Arrow.bmp,None,2,892,None,0,167,167,167,,2,1,0.4580315639905166,go,0.2,0.892,1.892,039,Scanner,R,1,2019_Aug_22_0956,SST,3.0.7,23.99778684746008,
go,sst_images/Left_Arrow.bmp,None,1,1370,None,0,168,168,168,,1,1,0.6286121619923506,go,0.2,1.37,2.37,039,Scanner,R,1,2019_Aug_22_0956,SST,3.0.7,23.99778684746008,
go,sst_images/Right_Arrow.bmp,None,2,1371,None,0,169,169,169,,2,1,0.46028109100006986,go,0.2,1.371,2.371,039,Scanner,R,1,2019_Aug_22_0956,SST,3.0.7,23.99778684746008,
go,sst_images/Right_Arrow.bmp,None,2,943,None,0,170,170,170,,2,1,0.544890998993651,go,0.2,0.943,1.943,039,Scanner,R,1,2019_Aug_22_0956,SST,3.0.7,23.99778684746008,
go,sst_images/Left_Arrow.bmp,None,1,940,None,0,171,171,171,,1,1,0.45982462099345867,go,0.2,0.94,1.94,039,Scanner,R,1,2019_Aug_22_0956,SST,3.0.7,23.99778684746008,
go,sst_images/Right_Arrow.bmp,None,2,848,None,0,172,172,172,,2,1,0.5045941299904371,go,0.2,0.848,1.8479999999999999,039,Scanner,R,1,2019_Aug_22_0956,SST,3.0.7,23.99778684746008,
go,sst_images/Right_Arrow.bmp,None,2,709,None,0,173,173,173,,2,1,0.7976352400000906,go,0.2,0.709,1.709,039,Scanner,R,1,2019_Aug_22_0956,SST,3.0.7,23.99778684746008,
stop,sst_images/Left_Arrow.bmp,sst_images/Stop_Arrow.bmp,none,940,None,0,174,174,174,,None,1,,stop,0.25,0.94,1.94,039,Scanner,R,1,2019_Aug_22_0956,SST,3.0.7,23.99778684746008,
go,sst_images/Right_Arrow.bmp,None,2,1271,None,0,175,175,175,,2,1,0.5051247390074423,go,0.25,1.271,2.271,039,Scanner,R,1,2019_Aug_22_0956,SST,3.0.7,23.99778684746008,
go,sst_images/Left_Arrow.bmp,None,1,711,None,0,176,176,176,,1,1,0.586950231998344,go,0.25,0.711,1.7109999999999999,039,Scanner,R,1,2019_Aug_22_0956,SST,3.0.7,23.99778684746008,
go,sst_images/Right_Arrow.bmp,None,2,786,None,0,177,177,177,,2,1,0.6293555949960137,go,0.25,0.786,1.786,039,Scanner,R,1,2019_Aug_22_0956,SST,3.0.7,23.99778684746008,
go,sst_images/Left_Arrow.bmp,None,1,721,None,0,178,178,178,,1,1,0.5839796750078676,go,0.25,0.721,1.721,039,Scanner,R,1,2019_Aug_22_0956,SST,3.0.7,23.99778684746008,
go,sst_images/Right_Arrow.bmp,None,2,1632,2444.0,0,179,179,179,,2,1,0.6715274089947343,go,0.25,1.632,2.6319999999999997,039,Scanner,R,1,2019_Aug_22_0956,SST,3.0.7,23.99778684746008,
