trial_type,arrow_1,arrow_2,corrAns,jitter,run_end_fixation,trials.thisRepN,trials.thisTrialN,trials.thisN,trials.thisIndex,randomized TrialOrder,key_response.keys,key_response.corr,key_response.rt,trial_t.routineEndVal,ss_delay,iti_duration,SOA,participant,prac_or_scan,handedness,run,date,expName,psychopyVersion,frameRate,
go,sst_images/Left_Arrow.bmp,None,1,888,None,0,0,0,0,9,1,1,0.6486599909985671,go,0.05,0.888,1.888,040,Scanner,R,2,2019_Aug_22_1122,SST,3.0.7,23.997493202492855,
go,sst_images/Right_Arrow.bmp,None,2,728,None,0,1,1,1,,2,1,0.5037590470019495,go,0.05,0.728,1.728,040,Scanner,R,2,2019_Aug_22_1122,SST,3.0.7,23.997493202492855,
stop,sst_images/Right_Arrow.bmp,sst_images/Stop_Arrow.bmp,none,714,None,0,2,2,2,,None,1,,stop,0.1,0.714,1.714,040,Scanner,R,2,2019_Aug_22_1122,SST,3.0.7,23.997493202492855,
go,sst_images/Right_Arrow.bmp,None,2,773,None,0,3,3,3,,2,1,0.5830371400079457,go,0.1,0.773,1.7730000000000001,040,Scanner,R,2,2019_Aug_22_1122,SST,3.0.7,23.997493202492855,
go,sst_images/Left_Arrow.bmp,None,1,905,None,0,4,4,4,,1,1,0.4644144710036926,go,0.1,0.905,1.905,040,Scanner,R,2,2019_Aug_22_1122,SST,3.0.7,23.997493202492855,
stop,sst_images/Left_Arrow.bmp,sst_images/Stop_Arrow.bmp,none,714,None,0,5,5,5,,None,1,,stop,0.15000000000000002,0.714,1.7140000000000002,040,Scanner,R,2,2019_Aug_22_1122,SST,3.0.7,23.997493202492855,
go,sst_images/Left_Arrow.bmp,None,1,713,None,0,6,6,6,,1,1,0.4618230490013957,go,0.15000000000000002,0.713,1.713,040,Scanner,R,2,2019_Aug_22_1122,SST,3.0.7,23.997493202492855,
go,sst_images/Right_Arrow.bmp,None,2,752,None,0,7,7,7,,2,1,0.4642776469991077,go,0.15000000000000002,0.752,1.752,040,Scanner,R,2,2019_Aug_22_1122,SST,3.0.7,23.997493202492855,
go,sst_images/Left_Arrow.bmp,None,1,788,None,0,8,8,8,,1,1,0.4210340589925181,go,0.15000000000000002,0.788,1.788,040,Scanner,R,2,2019_Aug_22_1122,SST,3.0.7,23.997493202492855,
go,sst_images/Right_Arrow.bmp,None,2,1024,None,0,9,9,9,,2,1,0.4640929890010739,go,0.15000000000000002,1.024,2.024,040,Scanner,R,2,2019_Aug_22_1122,SST,3.0.7,23.997493202492855,
go,sst_images/Right_Arrow.bmp,None,2,759,None,0,10,10,10,,2,1,0.4624763870087918,go,0.15000000000000002,0.759,1.759,040,Scanner,R,2,2019_Aug_22_1122,SST,3.0.7,23.997493202492855,
go,sst_images/Left_Arrow.bmp,None,1,743,None,0,11,11,11,,1,1,0.6304491570044775,go,0.15000000000000002,0.743,1.7429999999999999,040,Scanner,R,2,2019_Aug_22_1122,SST,3.0.7,23.997493202492855,
go,sst_images/Right_Arrow.bmp,None,2,739,None,0,12,12,12,,2,1,0.4617186400137143,go,0.15000000000000002,0.739,1.7389999999999999,040,Scanner,R,2,2019_Aug_22_1122,SST,3.0.7,23.997493202492855,
go,sst_images/Left_Arrow.bmp,None,1,1076,None,0,13,13,13,,1,1,0.41981396300252527,go,0.15000000000000002,1.076,2.076,040,Scanner,R,2,2019_Aug_22_1122,SST,3.0.7,23.997493202492855,
go,sst_images/Left_Arrow.bmp,None,1,922,None,0,14,14,14,,1,1,0.4640934409981128,go,0.15000000000000002,0.922,1.9220000000000002,040,Scanner,R,2,2019_Aug_22_1122,SST,3.0.7,23.997493202492855,
stop,sst_images/Left_Arrow.bmp,sst_images/Stop_Arrow.bmp,none,1239,None,0,15,15,15,,1,0,0.4026903490012046,stop,0.10000000000000002,1.239,2.2863096509987955,040,Scanner,R,2,2019_Aug_22_1122,SST,3.0.7,23.997493202492855,
go,sst_images/Left_Arrow.bmp,None,1,915,None,0,16,16,16,,1,1,0.4625329940026859,go,0.10000000000000002,0.915,1.915,040,Scanner,R,2,2019_Aug_22_1122,SST,3.0.7,23.997493202492855,
go,sst_images/Right_Arrow.bmp,None,2,1121,None,0,17,17,17,,2,1,0.461466777996975,go,0.10000000000000002,1.121,2.121,040,Scanner,R,2,2019_Aug_22_1122,SST,3.0.7,23.997493202492855,
go,sst_images/Left_Arrow.bmp,None,1,709,None,0,18,18,18,,1,1,0.4601623130001826,go,0.10000000000000002,0.709,1.709,040,Scanner,R,2,2019_Aug_22_1122,SST,3.0.7,23.997493202492855,
go,sst_images/Left_Arrow.bmp,None,1,1765,None,0,19,19,19,,1,1,0.502748671991867,go,0.10000000000000002,1.765,2.7649999999999997,040,Scanner,R,2,2019_Aug_22_1122,SST,3.0.7,23.997493202492855,
go,sst_images/Right_Arrow.bmp,None,2,824,None,0,20,20,20,,2,1,0.5461421479994897,go,0.10000000000000002,0.824,1.8239999999999998,040,Scanner,R,2,2019_Aug_22_1122,SST,3.0.7,23.997493202492855,
go,sst_images/Left_Arrow.bmp,None,1,1236,None,0,21,21,21,,1,1,0.5464228409982752,go,0.10000000000000002,1.236,2.2359999999999998,040,Scanner,R,2,2019_Aug_22_1122,SST,3.0.7,23.997493202492855,
go,sst_images/Right_Arrow.bmp,None,2,982,None,0,22,22,22,,2,1,0.5024517279962311,go,0.10000000000000002,0.982,1.982,040,Scanner,R,2,2019_Aug_22_1122,SST,3.0.7,23.997493202492855,
stop,sst_images/Right_Arrow.bmp,sst_images/Stop_Arrow.bmp,none,713,None,0,23,23,23,,None,1,,stop,0.15000000000000002,0.713,1.713,040,Scanner,R,2,2019_Aug_22_1122,SST,3.0.7,23.997493202492855,
go,sst_images/Left_Arrow.bmp,None,1,1011,None,0,24,24,24,,1,1,0.42055603899643756,go,0.15000000000000002,1.011,2.011,040,Scanner,R,2,2019_Aug_22_1122,SST,3.0.7,23.997493202492855,
go,sst_images/Right_Arrow.bmp,None,2,756,None,0,25,25,25,,2,1,0.4610086530010449,go,0.15000000000000002,0.756,1.756,040,Scanner,R,2,2019_Aug_22_1122,SST,3.0.7,23.997493202492855,
go,sst_images/Right_Arrow.bmp,None,2,702,None,0,26,26,26,,2,1,0.5467915480112424,go,0.15000000000000002,0.702,1.702,040,Scanner,R,2,2019_Aug_22_1122,SST,3.0.7,23.997493202492855,
go,sst_images/Left_Arrow.bmp,None,1,1239,None,0,27,27,27,,1,1,0.543756540006143,go,0.15000000000000002,1.239,2.239,040,Scanner,R,2,2019_Aug_22_1122,SST,3.0.7,23.997493202492855,
go,sst_images/Right_Arrow.bmp,None,2,887,None,0,28,28,28,,1,0,0.4600656180118676,go,0.15000000000000002,0.887,1.887,040,Scanner,R,2,2019_Aug_22_1122,SST,3.0.7,23.997493202492855,
go,sst_images/Right_Arrow.bmp,None,2,849,None,0,29,29,29,,2,1,0.5461075409984915,go,0.15000000000000002,0.849,1.849,040,Scanner,R,2,2019_Aug_22_1122,SST,3.0.7,23.997493202492855,
stop,sst_images/Right_Arrow.bmp,sst_images/Stop_Arrow.bmp,none,759,None,0,30,30,30,,None,1,,stop,0.2,0.759,1.7590000000000001,040,Scanner,R,2,2019_Aug_22_1122,SST,3.0.7,23.997493202492855,
go,sst_images/Left_Arrow.bmp,None,1,717,None,0,31,31,31,,1,1,0.4627528499986511,go,0.2,0.717,1.717,040,Scanner,R,2,2019_Aug_22_1122,SST,3.0.7,23.997493202492855,
go,sst_images/Right_Arrow.bmp,None,2,922,None,0,32,32,32,,2,1,0.4602884899941273,go,0.2,0.922,1.9220000000000002,040,Scanner,R,2,2019_Aug_22_1122,SST,3.0.7,23.997493202492855,
stop,sst_images/Left_Arrow.bmp,sst_images/Stop_Arrow.bmp,none,885,None,0,33,33,33,,None,1,,stop,0.25,0.885,1.885,040,Scanner,R,2,2019_Aug_22_1122,SST,3.0.7,23.997493202492855,
go,sst_images/Left_Arrow.bmp,None,1,1045,None,0,34,34,34,,1,1,0.46330266499717254,go,0.25,1.045,2.045,040,Scanner,R,2,2019_Aug_22_1122,SST,3.0.7,23.997493202492855,
go,sst_images/Left_Arrow.bmp,None,1,826,None,0,35,35,35,,1,1,0.46201795399247203,go,0.25,0.826,1.826,040,Scanner,R,2,2019_Aug_22_1122,SST,3.0.7,23.997493202492855,
go,sst_images/Right_Arrow.bmp,None,2,1091,None,0,36,36,36,,2,1,0.6289573300018674,go,0.25,1.091,2.091,040,Scanner,R,2,2019_Aug_22_1122,SST,3.0.7,23.997493202492855,
stop,sst_images/Right_Arrow.bmp,sst_images/Stop_Arrow.bmp,none,786,None,0,37,37,37,,2,0,0.4914201840001624,stop,0.2,0.786,1.8445798159998377,040,Scanner,R,2,2019_Aug_22_1122,SST,3.0.7,23.997493202492855,
go,sst_images/Right_Arrow.bmp,None,2,921,None,0,38,38,38,,2,1,0.5475135400047293,go,0.2,0.921,1.921,040,Scanner,R,2,2019_Aug_22_1122,SST,3.0.7,23.997493202492855,
go,sst_images/Left_Arrow.bmp,None,1,755,None,0,39,39,39,,1,1,0.45851520900032483,go,0.2,0.755,1.755,040,Scanner,R,2,2019_Aug_22_1122,SST,3.0.7,23.997493202492855,
go,sst_images/Left_Arrow.bmp,None,1,1085,None,0,40,40,40,,1,1,0.5058387979952386,go,0.2,1.085,2.085,040,Scanner,R,2,2019_Aug_22_1122,SST,3.0.7,23.997493202492855,
go,sst_images/Right_Arrow.bmp,None,2,825,None,0,41,41,41,,2,1,0.45660769200185314,go,0.2,0.825,1.825,040,Scanner,R,2,2019_Aug_22_1122,SST,3.0.7,23.997493202492855,
go,sst_images/Left_Arrow.bmp,None,1,741,None,0,42,42,42,,1,1,0.545793160010362,go,0.2,0.741,1.741,040,Scanner,R,2,2019_Aug_22_1122,SST,3.0.7,23.997493202492855,
go,sst_images/Left_Arrow.bmp,None,1,953,None,0,43,43,43,,1,1,0.5456692739971913,go,0.2,0.953,1.9529999999999998,040,Scanner,R,2,2019_Aug_22_1122,SST,3.0.7,23.997493202492855,
stop,sst_images/Right_Arrow.bmp,sst_images/Stop_Arrow.bmp,none,746,None,0,44,44,44,,2,0,0.4516193230083445,stop,0.15000000000000002,0.746,1.7943806769916555,040,Scanner,R,2,2019_Aug_22_1122,SST,3.0.7,23.997493202492855,
go,sst_images/Right_Arrow.bmp,None,2,813,None,0,45,45,45,,2,1,0.6706817020021845,go,0.15000000000000002,0.813,1.813,040,Scanner,R,2,2019_Aug_22_1122,SST,3.0.7,23.997493202492855,
go,sst_images/Right_Arrow.bmp,None,2,846,None,0,46,46,46,,2,1,0.5864184859965462,go,0.15000000000000002,0.846,1.846,040,Scanner,R,2,2019_Aug_22_1122,SST,3.0.7,23.997493202492855,
go,sst_images/Right_Arrow.bmp,None,2,952,None,0,47,47,47,,2,1,0.546199673000956,go,0.15000000000000002,0.952,1.952,040,Scanner,R,2,2019_Aug_22_1122,SST,3.0.7,23.997493202492855,
go,sst_images/Left_Arrow.bmp,None,1,702,None,0,48,48,48,,1,1,0.5045916609960841,go,0.15000000000000002,0.702,1.702,040,Scanner,R,2,2019_Aug_22_1122,SST,3.0.7,23.997493202492855,
go,sst_images/Left_Arrow.bmp,None,1,763,None,0,49,49,49,,1,1,0.6273959179961821,go,0.15000000000000002,0.763,1.763,040,Scanner,R,2,2019_Aug_22_1122,SST,3.0.7,23.997493202492855,
stop,sst_images/Left_Arrow.bmp,sst_images/Stop_Arrow.bmp,none,1087,None,0,50,50,50,,None,1,,stop,0.2,1.087,2.0869999999999997,040,Scanner,R,2,2019_Aug_22_1122,SST,3.0.7,23.997493202492855,
go,sst_images/Left_Arrow.bmp,None,1,801,None,0,51,51,51,,1,1,0.5453558169974713,go,0.2,0.801,1.8010000000000002,040,Scanner,R,2,2019_Aug_22_1122,SST,3.0.7,23.997493202492855,
go,sst_images/Right_Arrow.bmp,None,2,810,None,0,52,52,52,,2,1,0.500845558999572,go,0.2,0.81,1.81,040,Scanner,R,2,2019_Aug_22_1122,SST,3.0.7,23.997493202492855,
go,sst_images/Right_Arrow.bmp,None,2,715,None,0,53,53,53,,2,1,0.5054804880055599,go,0.2,0.715,1.7149999999999999,040,Scanner,R,2,2019_Aug_22_1122,SST,3.0.7,23.997493202492855,
go,sst_images/Left_Arrow.bmp,None,1,1023,None,0,54,54,54,,1,1,0.5005969499907224,go,0.2,1.023,2.0229999999999997,040,Scanner,R,2,2019_Aug_22_1122,SST,3.0.7,23.997493202492855,
go,sst_images/Left_Arrow.bmp,None,1,769,None,0,55,55,55,,1,1,0.5453997010044986,go,0.2,0.769,1.7690000000000001,040,Scanner,R,2,2019_Aug_22_1122,SST,3.0.7,23.997493202492855,
stop,sst_images/Right_Arrow.bmp,sst_images/Stop_Arrow.bmp,none,825,None,0,56,56,56,,2,0,0.4852169820078416,stop,0.15000000000000002,0.825,1.8397830179921584,040,Scanner,R,2,2019_Aug_22_1122,SST,3.0.7,23.997493202492855,
go,sst_images/Left_Arrow.bmp,None,1,757,None,0,57,57,57,,1,1,0.4614809759950731,go,0.15000000000000002,0.757,1.7570000000000001,040,Scanner,R,2,2019_Aug_22_1122,SST,3.0.7,23.997493202492855,
go,sst_images/Right_Arrow.bmp,None,2,742,None,0,58,58,58,,2,1,0.5040212839958258,go,0.15000000000000002,0.742,1.742,040,Scanner,R,2,2019_Aug_22_1122,SST,3.0.7,23.997493202492855,
go,sst_images/Left_Arrow.bmp,None,1,817,None,0,59,59,59,,1,1,0.5873759239912033,go,0.15000000000000002,0.817,1.817,040,Scanner,R,2,2019_Aug_22_1122,SST,3.0.7,23.997493202492855,
go,sst_images/Left_Arrow.bmp,None,1,1011,None,0,60,60,60,,1,1,0.5039567729982082,go,0.15000000000000002,1.011,2.011,040,Scanner,R,2,2019_Aug_22_1122,SST,3.0.7,23.997493202492855,
stop,sst_images/Left_Arrow.bmp,sst_images/Stop_Arrow.bmp,none,872,None,0,61,61,61,,1,0,0.44633577899367083,stop,0.10000000000000002,0.872,1.875664221006329,040,Scanner,R,2,2019_Aug_22_1122,SST,3.0.7,23.997493202492855,
go,sst_images/Right_Arrow.bmp,None,2,701,None,0,62,62,62,,2,1,0.5046430520014837,go,0.10000000000000002,0.701,1.701,040,Scanner,R,2,2019_Aug_22_1122,SST,3.0.7,23.997493202492855,
go,sst_images/Right_Arrow.bmp,None,2,780,None,0,63,63,63,,2,1,0.46534863900160417,go,0.10000000000000002,0.78,1.78,040,Scanner,R,2,2019_Aug_22_1122,SST,3.0.7,23.997493202492855,
stop,sst_images/Right_Arrow.bmp,sst_images/Stop_Arrow.bmp,none,780,None,0,64,64,64,,None,1,,stop,0.15000000000000002,0.78,1.78,040,Scanner,R,2,2019_Aug_22_1122,SST,3.0.7,23.997493202492855,
go,sst_images/Left_Arrow.bmp,None,1,890,None,0,65,65,65,,1,1,0.46061049100535456,go,0.15000000000000002,0.89,1.8900000000000001,040,Scanner,R,2,2019_Aug_22_1122,SST,3.0.7,23.997493202492855,
go,sst_images/Right_Arrow.bmp,None,2,770,None,0,66,66,66,,2,1,0.5038715670089005,go,0.15000000000000002,0.77,1.77,040,Scanner,R,2,2019_Aug_22_1122,SST,3.0.7,23.997493202492855,
go,sst_images/Left_Arrow.bmp,None,1,728,None,0,67,67,67,,1,1,0.4199869020085316,go,0.15000000000000002,0.728,1.728,040,Scanner,R,2,2019_Aug_22_1122,SST,3.0.7,23.997493202492855,
go,sst_images/Right_Arrow.bmp,None,2,781,None,0,68,68,68,,2,1,0.419825999008026,go,0.15000000000000002,0.781,1.7810000000000001,040,Scanner,R,2,2019_Aug_22_1122,SST,3.0.7,23.997493202492855,
stop,sst_images/Right_Arrow.bmp,sst_images/Stop_Arrow.bmp,none,1171,None,0,69,69,69,,1,0,0.45400061599502806,stop,0.10000000000000002,1.171,2.166999384004972,040,Scanner,R,2,2019_Aug_22_1122,SST,3.0.7,23.997493202492855,
go,sst_images/Right_Arrow.bmp,None,2,819,None,0,70,70,70,,2,1,0.6299488919903524,go,0.10000000000000002,0.819,1.819,040,Scanner,R,2,2019_Aug_22_1122,SST,3.0.7,23.997493202492855,
go,sst_images/Left_Arrow.bmp,None,1,1105,None,0,71,71,71,,1,1,0.5058098570007132,go,0.10000000000000002,1.105,2.105,040,Scanner,R,2,2019_Aug_22_1122,SST,3.0.7,23.997493202492855,
go,sst_images/Right_Arrow.bmp,None,2,734,None,0,72,72,72,,2,1,0.4607349379948573,go,0.10000000000000002,0.734,1.734,040,Scanner,R,2,2019_Aug_22_1122,SST,3.0.7,23.997493202492855,
go,sst_images/Left_Arrow.bmp,None,1,719,None,0,73,73,73,,1,1,0.6293145410018042,go,0.10000000000000002,0.719,1.7189999999999999,040,Scanner,R,2,2019_Aug_22_1122,SST,3.0.7,23.997493202492855,
go,sst_images/Right_Arrow.bmp,None,2,716,None,0,74,74,74,,2,1,0.46360902101150714,go,0.10000000000000002,0.716,1.716,040,Scanner,R,2,2019_Aug_22_1122,SST,3.0.7,23.997493202492855,
stop,sst_images/Left_Arrow.bmp,sst_images/Stop_Arrow.bmp,none,824,None,0,75,75,75,,1,0,0.3619415029970696,stop,0.05000000000000002,0.824,1.8620584970029304,040,Scanner,R,2,2019_Aug_22_1122,SST,3.0.7,23.997493202492855,
go,sst_images/Left_Arrow.bmp,None,1,914,None,0,76,76,76,,1,1,0.4629292110039387,go,0.05000000000000002,0.914,1.9140000000000001,040,Scanner,R,2,2019_Aug_22_1122,SST,3.0.7,23.997493202492855,
go,sst_images/Right_Arrow.bmp,None,2,746,None,0,77,77,77,,2,1,0.42021715200098697,go,0.05000000000000002,0.746,1.746,040,Scanner,R,2,2019_Aug_22_1122,SST,3.0.7,23.997493202492855,
go,sst_images/Right_Arrow.bmp,None,2,798,None,0,78,78,78,,1,0,0.41845122500672005,go,0.05000000000000002,0.798,1.798,040,Scanner,R,2,2019_Aug_22_1122,SST,3.0.7,23.997493202492855,
stop,sst_images/Right_Arrow.bmp,sst_images/Stop_Arrow.bmp,none,704,None,0,79,79,79,,None,1,,stop,0.10000000000000002,0.704,1.704,040,Scanner,R,2,2019_Aug_22_1122,SST,3.0.7,23.997493202492855,
go,sst_images/Left_Arrow.bmp,None,1,1087,None,0,80,80,80,,1,1,0.4225170340068871,go,0.10000000000000002,1.087,2.0869999999999997,040,Scanner,R,2,2019_Aug_22_1122,SST,3.0.7,23.997493202492855,
go,sst_images/Left_Arrow.bmp,None,1,1029,None,0,81,81,81,,1,1,0.46512768500542734,go,0.10000000000000002,1.029,2.029,040,Scanner,R,2,2019_Aug_22_1122,SST,3.0.7,23.997493202492855,
go,sst_images/Right_Arrow.bmp,None,2,714,None,0,82,82,82,,2,1,0.46374483199906535,go,0.10000000000000002,0.714,1.714,040,Scanner,R,2,2019_Aug_22_1122,SST,3.0.7,23.997493202492855,
go,sst_images/Right_Arrow.bmp,None,2,776,None,0,83,83,83,,2,1,0.4606004800007213,go,0.10000000000000002,0.776,1.776,040,Scanner,R,2,2019_Aug_22_1122,SST,3.0.7,23.997493202492855,
stop,sst_images/Right_Arrow.bmp,sst_images/Stop_Arrow.bmp,none,1011,None,0,84,84,84,,None,1,,stop,0.15000000000000002,1.011,2.0109999999999997,040,Scanner,R,2,2019_Aug_22_1122,SST,3.0.7,23.997493202492855,
go,sst_images/Right_Arrow.bmp,None,2,1280,None,0,85,85,85,,2,1,0.42105058798915707,go,0.15000000000000002,1.28,2.2800000000000002,040,Scanner,R,2,2019_Aug_22_1122,SST,3.0.7,23.997493202492855,
go,sst_images/Left_Arrow.bmp,None,1,1161,None,0,86,86,86,,1,1,0.421178990000044,go,0.15000000000000002,1.161,2.161,040,Scanner,R,2,2019_Aug_22_1122,SST,3.0.7,23.997493202492855,
go,sst_images/Left_Arrow.bmp,None,1,840,None,0,87,87,87,,1,1,0.5454017029987881,go,0.15000000000000002,0.84,1.8399999999999999,040,Scanner,R,2,2019_Aug_22_1122,SST,3.0.7,23.997493202492855,
go,sst_images/Right_Arrow.bmp,None,2,863,None,0,88,88,88,,2,1,0.46297913099988364,go,0.15000000000000002,0.863,1.863,040,Scanner,R,2,2019_Aug_22_1122,SST,3.0.7,23.997493202492855,
stop,sst_images/Left_Arrow.bmp,sst_images/Stop_Arrow.bmp,none,980,None,0,89,89,89,,1,0,0.4466754699969897,stop,0.10000000000000002,0.98,1.9833245300030102,040,Scanner,R,2,2019_Aug_22_1122,SST,3.0.7,23.997493202492855,
go,sst_images/Left_Arrow.bmp,None,1,859,None,0,90,90,90,,1,1,0.546181384997908,go,0.10000000000000002,0.859,1.859,040,Scanner,R,2,2019_Aug_22_1122,SST,3.0.7,23.997493202492855,
go,sst_images/Right_Arrow.bmp,None,2,879,None,0,91,91,91,,2,1,0.46393353199528065,go,0.10000000000000002,0.879,1.879,040,Scanner,R,2,2019_Aug_22_1122,SST,3.0.7,23.997493202492855,
go,sst_images/Left_Arrow.bmp,None,1,773,None,0,92,92,92,,1,1,0.41992692899657413,go,0.10000000000000002,0.773,1.7730000000000001,040,Scanner,R,2,2019_Aug_22_1122,SST,3.0.7,23.997493202492855,
go,sst_images/Right_Arrow.bmp,None,2,701,None,0,93,93,93,,2,1,0.46026293000613805,go,0.10000000000000002,0.701,1.701,040,Scanner,R,2,2019_Aug_22_1122,SST,3.0.7,23.997493202492855,
go,sst_images/Left_Arrow.bmp,None,1,765,None,0,94,94,94,,1,1,0.37524177599698305,go,0.10000000000000002,0.765,1.7650000000000001,040,Scanner,R,2,2019_Aug_22_1122,SST,3.0.7,23.997493202492855,
stop,sst_images/Left_Arrow.bmp,sst_images/Stop_Arrow.bmp,none,1276,None,0,95,95,95,,None,1,,stop,0.15000000000000002,1.276,2.276,040,Scanner,R,2,2019_Aug_22_1122,SST,3.0.7,23.997493202492855,
go,sst_images/Left_Arrow.bmp,None,1,719,None,0,96,96,96,,1,1,0.5031936500017764,go,0.15000000000000002,0.719,1.7189999999999999,040,Scanner,R,2,2019_Aug_22_1122,SST,3.0.7,23.997493202492855,
go,sst_images/Left_Arrow.bmp,None,1,1227,None,0,97,97,97,,2,0,0.4695252150122542,go,0.15000000000000002,1.227,2.2270000000000003,040,Scanner,R,2,2019_Aug_22_1122,SST,3.0.7,23.997493202492855,
go,sst_images/Right_Arrow.bmp,None,2,1039,None,0,98,98,98,,2,1,0.5031021309987409,go,0.15000000000000002,1.039,2.0389999999999997,040,Scanner,R,2,2019_Aug_22_1122,SST,3.0.7,23.997493202492855,
go,sst_images/Left_Arrow.bmp,None,1,770,None,0,99,99,99,,1,1,0.462012527990737,go,0.15000000000000002,0.77,1.77,040,Scanner,R,2,2019_Aug_22_1122,SST,3.0.7,23.997493202492855,
go,sst_images/Right_Arrow.bmp,None,2,744,None,0,100,100,100,,1,0,0.46189499499450903,go,0.15000000000000002,0.744,1.744,040,Scanner,R,2,2019_Aug_22_1122,SST,3.0.7,23.997493202492855,
go,sst_images/Right_Arrow.bmp,None,2,767,None,0,101,101,101,,2,1,0.5466982430079952,go,0.15000000000000002,0.767,1.767,040,Scanner,R,2,2019_Aug_22_1122,SST,3.0.7,23.997493202492855,
go,sst_images/Left_Arrow.bmp,None,1,792,None,0,102,102,102,,1,1,0.41665220700087957,go,0.15000000000000002,0.792,1.792,040,Scanner,R,2,2019_Aug_22_1122,SST,3.0.7,23.997493202492855,
go,sst_images/Right_Arrow.bmp,None,2,754,None,0,103,103,103,,2,1,0.5040260929963551,go,0.15000000000000002,0.754,1.754,040,Scanner,R,2,2019_Aug_22_1122,SST,3.0.7,23.997493202492855,
stop,sst_images/Right_Arrow.bmp,sst_images/Stop_Arrow.bmp,none,851,None,0,104,104,104,,None,1,,stop,0.2,0.851,1.8509999999999998,040,Scanner,R,2,2019_Aug_22_1122,SST,3.0.7,23.997493202492855,
go,sst_images/Right_Arrow.bmp,None,2,711,None,0,105,105,105,,2,1,0.5472323750000214,go,0.2,0.711,1.7109999999999999,040,Scanner,R,2,2019_Aug_22_1122,SST,3.0.7,23.997493202492855,
go,sst_images/Left_Arrow.bmp,None,1,824,None,0,106,106,106,,1,1,0.5041861630015774,go,0.2,0.824,1.8239999999999998,040,Scanner,R,2,2019_Aug_22_1122,SST,3.0.7,23.997493202492855,
go,sst_images/Left_Arrow.bmp,None,1,781,None,0,107,107,107,,1,1,0.5045753360027447,go,0.2,0.781,1.7810000000000001,040,Scanner,R,2,2019_Aug_22_1122,SST,3.0.7,23.997493202492855,
go,sst_images/Right_Arrow.bmp,None,2,786,None,0,108,108,108,,2,1,0.5033281850046478,go,0.2,0.786,1.786,040,Scanner,R,2,2019_Aug_22_1122,SST,3.0.7,23.997493202492855,
stop,sst_images/Left_Arrow.bmp,sst_images/Stop_Arrow.bmp,none,773,None,0,109,109,109,,None,1,,stop,0.25,0.773,1.773,040,Scanner,R,2,2019_Aug_22_1122,SST,3.0.7,23.997493202492855,
go,sst_images/Right_Arrow.bmp,None,2,964,None,0,110,110,110,,2,1,0.5065700340055628,go,0.25,0.964,1.964,040,Scanner,R,2,2019_Aug_22_1122,SST,3.0.7,23.997493202492855,
go,sst_images/Left_Arrow.bmp,None,1,875,None,0,111,111,111,,1,1,0.4182092410046607,go,0.25,0.875,1.875,040,Scanner,R,2,2019_Aug_22_1122,SST,3.0.7,23.997493202492855,
go,sst_images/Right_Arrow.bmp,None,2,1041,None,0,112,112,112,,2,1,0.5033463830041001,go,0.25,1.041,2.041,040,Scanner,R,2,2019_Aug_22_1122,SST,3.0.7,23.997493202492855,
go,sst_images/Left_Arrow.bmp,None,1,843,None,0,113,113,113,,1,1,0.4230801289959345,go,0.25,0.843,1.843,040,Scanner,R,2,2019_Aug_22_1122,SST,3.0.7,23.997493202492855,
stop,sst_images/Left_Arrow.bmp,sst_images/Stop_Arrow.bmp,none,791,None,0,114,114,114,,2,0,0.5041593619971536,stop,0.2,0.791,1.8368406380028464,040,Scanner,R,2,2019_Aug_22_1122,SST,3.0.7,23.997493202492855,
go,sst_images/Right_Arrow.bmp,None,2,1018,None,0,115,115,115,,2,1,0.45712243200978264,go,0.2,1.018,2.018,040,Scanner,R,2,2019_Aug_22_1122,SST,3.0.7,23.997493202492855,
go,sst_images/Left_Arrow.bmp,None,1,1221,None,0,116,116,116,,1,1,0.5026892239984591,go,0.2,1.221,2.221,040,Scanner,R,2,2019_Aug_22_1122,SST,3.0.7,23.997493202492855,
stop,sst_images/Right_Arrow.bmp,sst_images/Stop_Arrow.bmp,none,755,None,0,117,117,117,,2,0,0.445490840007551,stop,0.15000000000000002,0.755,1.8095091599924489,040,Scanner,R,2,2019_Aug_22_1122,SST,3.0.7,23.997493202492855,
go,sst_images/Right_Arrow.bmp,None,2,965,None,0,118,118,118,,2,1,0.5448779979924439,go,0.15000000000000002,0.965,1.9649999999999999,040,Scanner,R,2,2019_Aug_22_1122,SST,3.0.7,23.997493202492855,
go,sst_images/Left_Arrow.bmp,None,1,873,None,0,119,119,119,,1,1,0.5045006879954599,go,0.15000000000000002,0.873,1.873,040,Scanner,R,2,2019_Aug_22_1122,SST,3.0.7,23.997493202492855,
stop,sst_images/Left_Arrow.bmp,sst_images/Stop_Arrow.bmp,none,746,None,0,120,120,120,,None,1,,stop,0.2,0.746,1.7459999999999998,040,Scanner,R,2,2019_Aug_22_1122,SST,3.0.7,23.997493202492855,
go,sst_images/Right_Arrow.bmp,None,2,785,None,0,121,121,121,,2,1,0.42191966700193007,go,0.2,0.785,1.7850000000000001,040,Scanner,R,2,2019_Aug_22_1122,SST,3.0.7,23.997493202492855,
go,sst_images/Left_Arrow.bmp,None,1,824,None,0,122,122,122,,1,1,0.42049945499456953,go,0.2,0.824,1.8239999999999998,040,Scanner,R,2,2019_Aug_22_1122,SST,3.0.7,23.997493202492855,
go,sst_images/Right_Arrow.bmp,None,2,1199,None,0,123,123,123,,2,1,0.46277036699757446,go,0.2,1.199,2.199,040,Scanner,R,2,2019_Aug_22_1122,SST,3.0.7,23.997493202492855,
go,sst_images/Left_Arrow.bmp,None,1,795,None,0,124,124,124,,1,1,0.4189617689989973,go,0.2,0.795,1.795,040,Scanner,R,2,2019_Aug_22_1122,SST,3.0.7,23.997493202492855,
go,sst_images/Right_Arrow.bmp,None,2,1280,None,0,125,125,125,,2,1,0.6705369889969006,go,0.2,1.28,2.2800000000000002,040,Scanner,R,2,2019_Aug_22_1122,SST,3.0.7,23.997493202492855,
go,sst_images/Right_Arrow.bmp,None,2,1050,None,0,126,126,126,,1,0,0.45861919700109866,go,0.2,1.05,2.05,040,Scanner,R,2,2019_Aug_22_1122,SST,3.0.7,23.997493202492855,
go,sst_images/Left_Arrow.bmp,None,1,963,None,0,127,127,127,,1,1,0.4211771569971461,go,0.2,0.963,1.963,040,Scanner,R,2,2019_Aug_22_1122,SST,3.0.7,23.997493202492855,
go,sst_images/Left_Arrow.bmp,None,1,933,None,0,128,128,128,,1,1,0.4618185429862933,go,0.2,0.933,1.933,040,Scanner,R,2,2019_Aug_22_1122,SST,3.0.7,23.997493202492855,
stop,sst_images/Right_Arrow.bmp,sst_images/Stop_Arrow.bmp,none,827,None,0,129,129,129,,2,0,0.41940912199788727,stop,0.15000000000000002,0.827,1.9075908780021127,040,Scanner,R,2,2019_Aug_22_1122,SST,3.0.7,23.997493202492855,
go,sst_images/Left_Arrow.bmp,None,1,1155,None,0,130,130,130,,1,1,0.41885871600243263,go,0.15000000000000002,1.155,2.1550000000000002,040,Scanner,R,2,2019_Aug_22_1122,SST,3.0.7,23.997493202492855,
go,sst_images/Right_Arrow.bmp,None,2,718,None,0,131,131,131,,2,1,0.4586650489945896,go,0.15000000000000002,0.718,1.718,040,Scanner,R,2,2019_Aug_22_1122,SST,3.0.7,23.997493202492855,
go,sst_images/Left_Arrow.bmp,None,1,759,None,0,132,132,132,,1,1,0.46007068699691445,go,0.15000000000000002,0.759,1.759,040,Scanner,R,2,2019_Aug_22_1122,SST,3.0.7,23.997493202492855,
go,sst_images/Left_Arrow.bmp,None,1,964,None,0,133,133,133,,1,1,0.5433785610075574,go,0.15000000000000002,0.964,1.964,040,Scanner,R,2,2019_Aug_22_1122,SST,3.0.7,23.997493202492855,
go,sst_images/Left_Arrow.bmp,None,1,789,None,0,134,134,134,,2,0,0.42043230099079665,go,0.15000000000000002,0.789,1.7890000000000001,040,Scanner,R,2,2019_Aug_22_1122,SST,3.0.7,23.997493202492855,
go,sst_images/Right_Arrow.bmp,None,2,746,None,0,135,135,135,,2,1,0.41997568399528973,go,0.15000000000000002,0.746,1.746,040,Scanner,R,2,2019_Aug_22_1122,SST,3.0.7,23.997493202492855,
go,sst_images/Left_Arrow.bmp,None,1,980,None,0,136,136,136,,1,1,0.5022117270127637,go,0.15000000000000002,0.98,1.98,040,Scanner,R,2,2019_Aug_22_1122,SST,3.0.7,23.997493202492855,
stop,sst_images/Right_Arrow.bmp,sst_images/Stop_Arrow.bmp,none,770,None,0,137,137,137,,None,1,,stop,0.2,0.77,1.7699999999999998,040,Scanner,R,2,2019_Aug_22_1122,SST,3.0.7,23.997493202492855,
go,sst_images/Left_Arrow.bmp,None,1,757,None,0,138,138,138,,1,1,0.38122435499099083,go,0.2,0.757,1.7570000000000001,040,Scanner,R,2,2019_Aug_22_1122,SST,3.0.7,23.997493202492855,
go,sst_images/Right_Arrow.bmp,None,2,962,None,0,139,139,139,,2,1,0.41971379100868944,go,0.2,0.962,1.962,040,Scanner,R,2,2019_Aug_22_1122,SST,3.0.7,23.997493202492855,
go,sst_images/Right_Arrow.bmp,None,2,1171,None,0,140,140,140,,2,1,0.54561057400133,go,0.2,1.171,2.1710000000000003,040,Scanner,R,2,2019_Aug_22_1122,SST,3.0.7,23.997493202492855,
go,sst_images/Left_Arrow.bmp,None,1,921,None,0,141,141,141,,1,1,0.4615861470083473,go,0.2,0.921,1.921,040,Scanner,R,2,2019_Aug_22_1122,SST,3.0.7,23.997493202492855,
go,sst_images/Right_Arrow.bmp,None,2,1107,None,0,142,142,142,,2,1,0.46335920300043654,go,0.2,1.107,2.107,040,Scanner,R,2,2019_Aug_22_1122,SST,3.0.7,23.997493202492855,
go,sst_images/Left_Arrow.bmp,None,1,773,None,0,143,143,143,,1,1,0.3789303029916482,go,0.2,0.773,1.7730000000000001,040,Scanner,R,2,2019_Aug_22_1122,SST,3.0.7,23.997493202492855,
go,sst_images/Left_Arrow.bmp,None,1,733,None,0,144,144,144,,2,0,0.4616678110032808,go,0.2,0.733,1.733,040,Scanner,R,2,2019_Aug_22_1122,SST,3.0.7,23.997493202492855,
go,sst_images/Right_Arrow.bmp,None,2,804,None,0,145,145,145,,2,1,0.503405356008443,go,0.2,0.804,1.804,040,Scanner,R,2,2019_Aug_22_1122,SST,3.0.7,23.997493202492855,
go,sst_images/Left_Arrow.bmp,None,1,1203,None,0,146,146,146,,1,1,0.5064514990081079,go,0.2,1.203,2.2030000000000003,040,Scanner,R,2,2019_Aug_22_1122,SST,3.0.7,23.997493202492855,
go,sst_images/Right_Arrow.bmp,None,2,769,None,0,147,147,147,,2,1,0.41929111200443003,go,0.2,0.769,1.7690000000000001,040,Scanner,R,2,2019_Aug_22_1122,SST,3.0.7,23.997493202492855,
go,sst_images/Left_Arrow.bmp,None,1,764,None,0,148,148,148,,1,1,0.6290586669929326,go,0.2,0.764,1.764,040,Scanner,R,2,2019_Aug_22_1122,SST,3.0.7,23.997493202492855,
go,sst_images/Right_Arrow.bmp,None,2,733,None,0,149,149,149,,2,1,0.5425676279992331,go,0.2,0.733,1.733,040,Scanner,R,2,2019_Aug_22_1122,SST,3.0.7,23.997493202492855,
stop,sst_images/Left_Arrow.bmp,sst_images/Stop_Arrow.bmp,none,888,None,0,150,150,150,,1,0,0.45517905200540554,stop,0.15000000000000002,0.888,1.9328209479945944,040,Scanner,R,2,2019_Aug_22_1122,SST,3.0.7,23.997493202492855,
go,sst_images/Right_Arrow.bmp,None,2,825,None,0,151,151,151,,2,1,0.5062392029940384,go,0.15000000000000002,0.825,1.825,040,Scanner,R,2,2019_Aug_22_1122,SST,3.0.7,23.997493202492855,
go,sst_images/Left_Arrow.bmp,None,1,756,None,0,152,152,152,,1,1,0.3729684980062302,go,0.15000000000000002,0.756,1.756,040,Scanner,R,2,2019_Aug_22_1122,SST,3.0.7,23.997493202492855,
go,sst_images/Right_Arrow.bmp,None,2,1601,None,0,153,153,153,,2,1,0.5011865109991049,go,0.15000000000000002,1.601,2.601,040,Scanner,R,2,2019_Aug_22_1122,SST,3.0.7,23.997493202492855,
go,sst_images/Left_Arrow.bmp,None,1,980,None,0,154,154,154,,1,1,0.4567471860063961,go,0.15000000000000002,0.98,1.98,040,Scanner,R,2,2019_Aug_22_1122,SST,3.0.7,23.997493202492855,
go,sst_images/Right_Arrow.bmp,None,2,772,None,0,155,155,155,,2,1,0.4170806750043994,go,0.15000000000000002,0.772,1.772,040,Scanner,R,2,2019_Aug_22_1122,SST,3.0.7,23.997493202492855,
stop,sst_images/Left_Arrow.bmp,sst_images/Stop_Arrow.bmp,none,809,None,0,156,156,156,,1,0,0.4509666060039308,stop,0.10000000000000002,0.809,1.8080333939960693,040,Scanner,R,2,2019_Aug_22_1122,SST,3.0.7,23.997493202492855,
go,sst_images/Left_Arrow.bmp,None,1,756,None,0,157,157,157,,1,1,0.46283393100020476,go,0.10000000000000002,0.756,1.756,040,Scanner,R,2,2019_Aug_22_1122,SST,3.0.7,23.997493202492855,
go,sst_images/Right_Arrow.bmp,None,2,1377,None,0,158,158,158,,2,1,0.42050433599797543,go,0.10000000000000002,1.377,2.377,040,Scanner,R,2,2019_Aug_22_1122,SST,3.0.7,23.997493202492855,
go,sst_images/Left_Arrow.bmp,None,1,1233,None,0,159,159,159,,1,1,0.4181693959981203,go,0.10000000000000002,1.233,2.233,040,Scanner,R,2,2019_Aug_22_1122,SST,3.0.7,23.997493202492855,
go,sst_images/Left_Arrow.bmp,None,1,904,None,0,160,160,160,,1,1,0.5855183829989983,go,0.10000000000000002,0.904,1.904,040,Scanner,R,2,2019_Aug_22_1122,SST,3.0.7,23.997493202492855,
go,sst_images/Right_Arrow.bmp,None,2,1162,None,0,161,161,161,,2,1,0.5854301489889622,go,0.10000000000000002,1.162,2.162,040,Scanner,R,2,2019_Aug_22_1122,SST,3.0.7,23.997493202492855,
go,sst_images/Left_Arrow.bmp,None,1,1101,None,0,162,162,162,,1,1,0.42216736200498417,go,0.10000000000000002,1.101,2.101,040,Scanner,R,2,2019_Aug_22_1122,SST,3.0.7,23.997493202492855,
go,sst_images/Right_Arrow.bmp,None,2,829,None,0,163,163,163,,2,1,0.3791390780097572,go,0.10000000000000002,0.829,1.829,040,Scanner,R,2,2019_Aug_22_1122,SST,3.0.7,23.997493202492855,
go,sst_images/Right_Arrow.bmp,None,2,968,None,0,164,164,164,,1,0,0.45347462699282914,go,0.10000000000000002,0.968,1.968,040,Scanner,R,2,2019_Aug_22_1122,SST,3.0.7,23.997493202492855,
go,sst_images/Right_Arrow.bmp,None,2,766,None,0,165,165,165,,2,1,0.504511145001743,go,0.10000000000000002,0.766,1.766,040,Scanner,R,2,2019_Aug_22_1122,SST,3.0.7,23.997493202492855,
stop,sst_images/Left_Arrow.bmp,sst_images/Stop_Arrow.bmp,none,718,None,0,166,166,166,,None,1,,stop,0.15000000000000002,0.718,1.7180000000000002,040,Scanner,R,2,2019_Aug_22_1122,SST,3.0.7,23.997493202492855,
go,sst_images/Left_Arrow.bmp,None,1,742,None,0,167,167,167,,1,1,0.5028454779967433,go,0.15000000000000002,0.742,1.742,040,Scanner,R,2,2019_Aug_22_1122,SST,3.0.7,23.997493202492855,
go,sst_images/Right_Arrow.bmp,None,2,791,None,0,168,168,168,,2,1,0.4594853199960198,go,0.15000000000000002,0.791,1.791,040,Scanner,R,2,2019_Aug_22_1122,SST,3.0.7,23.997493202492855,
go,sst_images/Right_Arrow.bmp,None,2,900,None,0,169,169,169,,2,1,0.5341494390013395,go,0.15000000000000002,0.9,1.9,040,Scanner,R,2,2019_Aug_22_1122,SST,3.0.7,23.997493202492855,
stop,sst_images/Right_Arrow.bmp,sst_images/Stop_Arrow.bmp,none,793,None,0,170,170,170,,None,1,,stop,0.2,0.793,1.793,040,Scanner,R,2,2019_Aug_22_1122,SST,3.0.7,23.997493202492855,
go,sst_images/Left_Arrow.bmp,None,1,891,None,0,171,171,171,,1,1,0.42034676000184845,go,0.2,0.891,1.891,040,Scanner,R,2,2019_Aug_22_1122,SST,3.0.7,23.997493202492855,
go,sst_images/Right_Arrow.bmp,None,2,872,None,0,172,172,172,,2,1,0.5032655209943186,go,0.2,0.872,1.8719999999999999,040,Scanner,R,2,2019_Aug_22_1122,SST,3.0.7,23.997493202492855,
go,sst_images/Right_Arrow.bmp,None,2,1521,None,0,173,173,173,,2,1,0.504180717995041,go,0.2,1.521,2.521,040,Scanner,R,2,2019_Aug_22_1122,SST,3.0.7,23.997493202492855,
go,sst_images/Right_Arrow.bmp,None,2,911,None,0,174,174,174,,1,0,0.4200298890064005,go,0.2,0.911,1.911,040,Scanner,R,2,2019_Aug_22_1122,SST,3.0.7,23.997493202492855,
go,sst_images/Left_Arrow.bmp,None,1,766,None,0,175,175,175,,1,1,0.4619497429957846,go,0.2,0.766,1.766,040,Scanner,R,2,2019_Aug_22_1122,SST,3.0.7,23.997493202492855,
go,sst_images/Right_Arrow.bmp,None,2,721,None,0,176,176,176,,2,1,0.5049945509963436,go,0.2,0.721,1.721,040,Scanner,R,2,2019_Aug_22_1122,SST,3.0.7,23.997493202492855,
go,sst_images/Left_Arrow.bmp,None,1,838,None,0,177,177,177,,1,1,0.5029463780083461,go,0.2,0.838,1.838,040,Scanner,R,2,2019_Aug_22_1122,SST,3.0.7,23.997493202492855,
stop,sst_images/Left_Arrow.bmp,sst_images/Stop_Arrow.bmp,none,766,None,0,178,178,178,,1,0,0.539952010003617,stop,0.15000000000000002,0.766,1.726047989996383,040,Scanner,R,2,2019_Aug_22_1122,SST,3.0.7,23.997493202492855,
go,sst_images/Right_Arrow.bmp,None,2,780,7177.0,0,179,179,179,,2,1,0.5035366699885344,go,0.15000000000000002,0.78,1.78,040,Scanner,R,2,2019_Aug_22_1122,SST,3.0.7,23.997493202492855,
