trial_type,arrow_1,arrow_2,corrAns,jitter,run_end_fixation,trials.thisRepN,trials.thisTrialN,trials.thisN,trials.thisIndex,randomized TrialOrder,key_response.keys,key_response.corr,trial_t.routineEndVal,ss_delay,iti_duration,SOA,key_response.rt,participant,prac_or_scan,handedness,run,date,expName,psychopyVersion,frameRate,
go,sst_images/Left_Arrow.bmp,None,1,861,None,0,0,0,0,5,None,0,go,0.05,0.861,1.861,,043,Scanner,R,2,2019_Aug_24_1310,SST,3.0.7,24.018728940273068,
go,sst_images/Right_Arrow.bmp,None,2,831,None,0,1,1,1,,2,1,go,0.05,0.831,1.831,0.6293100129987579,043,Scanner,R,2,2019_Aug_24_1310,SST,3.0.7,24.018728940273068,
go,sst_images/Right_Arrow.bmp,None,2,863,None,0,2,2,2,,2,1,go,0.05,0.863,1.863,0.5474079760024324,043,Scanner,R,2,2019_Aug_24_1310,SST,3.0.7,24.018728940273068,
go,sst_images/Left_Arrow.bmp,None,1,861,None,0,3,3,3,,1,1,go,0.05,0.861,1.861,0.46443547401577234,043,Scanner,R,2,2019_Aug_24_1310,SST,3.0.7,24.018728940273068,
go,sst_images/Left_Arrow.bmp,None,1,1245,None,0,4,4,4,,1,1,go,0.05,1.245,2.245,0.5045947259932291,043,Scanner,R,2,2019_Aug_24_1310,SST,3.0.7,24.018728940273068,
go,sst_images/Right_Arrow.bmp,None,2,975,None,0,5,5,5,,2,1,go,0.05,0.975,1.975,0.42078539202339016,043,Scanner,R,2,2019_Aug_24_1310,SST,3.0.7,24.018728940273068,
go,sst_images/Left_Arrow.bmp,None,1,718,None,0,6,6,6,,1,1,go,0.05,0.718,1.718,0.7095771619933657,043,Scanner,R,2,2019_Aug_24_1310,SST,3.0.7,24.018728940273068,
go,sst_images/Right_Arrow.bmp,None,2,736,None,0,7,7,7,,2,1,go,0.05,0.736,1.736,0.4576351149880793,043,Scanner,R,2,2019_Aug_24_1310,SST,3.0.7,24.018728940273068,
go,sst_images/Right_Arrow.bmp,None,2,711,None,0,8,8,8,,1,0,go,0.05,0.711,1.7109999999999999,0.37570569600211456,043,Scanner,R,2,2019_Aug_24_1310,SST,3.0.7,24.018728940273068,
stop,sst_images/Right_Arrow.bmp,sst_images/Stop_Arrow.bmp,none,785,None,0,9,9,9,,None,1,stop,0.1,0.785,1.7850000000000001,,043,Scanner,R,2,2019_Aug_24_1310,SST,3.0.7,24.018728940273068,
go,sst_images/Left_Arrow.bmp,None,1,702,None,0,10,10,10,,1,1,go,0.1,0.702,1.702,0.5024097649729811,043,Scanner,R,2,2019_Aug_24_1310,SST,3.0.7,24.018728940273068,
go,sst_images/Right_Arrow.bmp,None,2,2000,None,0,11,11,11,,2,1,go,0.1,2.0,3.0,0.45791122698574327,043,Scanner,R,2,2019_Aug_24_1310,SST,3.0.7,24.018728940273068,
go,sst_images/Left_Arrow.bmp,None,1,711,None,0,12,12,12,,1,1,go,0.1,0.711,1.7109999999999999,0.4607257430034224,043,Scanner,R,2,2019_Aug_24_1310,SST,3.0.7,24.018728940273068,
go,sst_images/Left_Arrow.bmp,None,1,832,None,0,13,13,13,,1,1,go,0.1,0.832,1.8319999999999999,0.7971868780150544,043,Scanner,R,2,2019_Aug_24_1310,SST,3.0.7,24.018728940273068,
go,sst_images/Left_Arrow.bmp,None,1,1087,None,0,14,14,14,,1,1,go,0.1,1.087,2.0869999999999997,0.5472779429983348,043,Scanner,R,2,2019_Aug_24_1310,SST,3.0.7,24.018728940273068,
go,sst_images/Right_Arrow.bmp,None,2,754,None,0,15,15,15,,2,1,go,0.1,0.754,1.754,0.5423431709932629,043,Scanner,R,2,2019_Aug_24_1310,SST,3.0.7,24.018728940273068,
stop,sst_images/Left_Arrow.bmp,sst_images/Stop_Arrow.bmp,none,929,None,0,16,16,16,,None,1,stop,0.15000000000000002,0.929,1.929,,043,Scanner,R,2,2019_Aug_24_1310,SST,3.0.7,24.018728940273068,
go,sst_images/Left_Arrow.bmp,None,1,1018,None,0,17,17,17,,1,1,go,0.15000000000000002,1.018,2.018,0.5463273809873499,043,Scanner,R,2,2019_Aug_24_1310,SST,3.0.7,24.018728940273068,
go,sst_images/Left_Arrow.bmp,None,1,1374,None,0,18,18,18,,1,1,go,0.15000000000000002,1.374,2.374,0.7537063779891469,043,Scanner,R,2,2019_Aug_24_1310,SST,3.0.7,24.018728940273068,
go,sst_images/Right_Arrow.bmp,None,2,1051,None,0,19,19,19,,2,1,go,0.15000000000000002,1.051,2.051,0.6279785810038447,043,Scanner,R,2,2019_Aug_24_1310,SST,3.0.7,24.018728940273068,
go,sst_images/Left_Arrow.bmp,None,1,1206,None,0,20,20,20,,1,1,go,0.15000000000000002,1.206,2.206,0.6305805819865782,043,Scanner,R,2,2019_Aug_24_1310,SST,3.0.7,24.018728940273068,
go,sst_images/Right_Arrow.bmp,None,2,703,None,0,21,21,21,,2,1,go,0.15000000000000002,0.703,1.7029999999999998,0.4204774279787671,043,Scanner,R,2,2019_Aug_24_1310,SST,3.0.7,24.018728940273068,
go,sst_images/Left_Arrow.bmp,None,1,704,None,0,22,22,22,,1,1,go,0.15000000000000002,0.704,1.704,0.5054335099994205,043,Scanner,R,2,2019_Aug_24_1310,SST,3.0.7,24.018728940273068,
stop,sst_images/Left_Arrow.bmp,sst_images/Stop_Arrow.bmp,none,792,None,0,23,23,23,,None,1,stop,0.2,0.792,1.792,,043,Scanner,R,2,2019_Aug_24_1310,SST,3.0.7,24.018728940273068,
go,sst_images/Right_Arrow.bmp,None,2,835,None,0,24,24,24,,2,1,go,0.2,0.835,1.835,0.587168024998391,043,Scanner,R,2,2019_Aug_24_1310,SST,3.0.7,24.018728940273068,
go,sst_images/Right_Arrow.bmp,None,2,792,None,0,25,25,25,,2,1,go,0.2,0.792,1.792,0.6708621129801031,043,Scanner,R,2,2019_Aug_24_1310,SST,3.0.7,24.018728940273068,
go,sst_images/Left_Arrow.bmp,None,1,944,None,0,26,26,26,,1,1,go,0.2,0.944,1.944,0.7510636509978212,043,Scanner,R,2,2019_Aug_24_1310,SST,3.0.7,24.018728940273068,
go,sst_images/Right_Arrow.bmp,None,2,848,None,0,27,27,27,,2,1,go,0.2,0.848,1.8479999999999999,0.6310701299807988,043,Scanner,R,2,2019_Aug_24_1310,SST,3.0.7,24.018728940273068,
go,sst_images/Right_Arrow.bmp,None,2,797,None,0,28,28,28,,2,1,go,0.2,0.797,1.7970000000000002,0.7930189150210936,043,Scanner,R,2,2019_Aug_24_1310,SST,3.0.7,24.018728940273068,
stop,sst_images/Right_Arrow.bmp,sst_images/Stop_Arrow.bmp,none,741,None,0,29,29,29,,None,1,stop,0.25,0.741,1.7409999999999999,,043,Scanner,R,2,2019_Aug_24_1310,SST,3.0.7,24.018728940273068,
go,sst_images/Left_Arrow.bmp,None,1,908,None,0,30,30,30,,1,1,go,0.25,0.908,1.908,0.5883442760095932,043,Scanner,R,2,2019_Aug_24_1310,SST,3.0.7,24.018728940273068,
go,sst_images/Right_Arrow.bmp,None,2,944,None,0,31,31,31,,2,1,go,0.25,0.944,1.944,0.5026281439932063,043,Scanner,R,2,2019_Aug_24_1310,SST,3.0.7,24.018728940273068,
go,sst_images/Left_Arrow.bmp,None,1,724,None,0,32,32,32,,1,1,go,0.25,0.724,1.724,0.630763778986875,043,Scanner,R,2,2019_Aug_24_1310,SST,3.0.7,24.018728940273068,
stop,sst_images/Right_Arrow.bmp,sst_images/Stop_Arrow.bmp,none,918,None,0,33,33,33,,2,0,stop,0.2,0.918,1.897551206994802,0.5704487930051982,043,Scanner,R,2,2019_Aug_24_1310,SST,3.0.7,24.018728940273068,
go,sst_images/Left_Arrow.bmp,None,1,876,None,0,34,34,34,,None,0,go,0.2,0.876,1.876,,043,Scanner,R,2,2019_Aug_24_1310,SST,3.0.7,24.018728940273068,
go,sst_images/Right_Arrow.bmp,None,2,706,None,0,35,35,35,,None,0,go,0.2,0.706,1.706,,043,Scanner,R,2,2019_Aug_24_1310,SST,3.0.7,24.018728940273068,
go,sst_images/Right_Arrow.bmp,None,2,791,None,0,36,36,36,,2,1,go,0.2,0.791,1.791,0.5875995260139462,043,Scanner,R,2,2019_Aug_24_1310,SST,3.0.7,24.018728940273068,
stop,sst_images/Left_Arrow.bmp,sst_images/Stop_Arrow.bmp,none,862,None,0,37,37,37,,None,1,stop,0.25,0.862,1.8619999999999999,,043,Scanner,R,2,2019_Aug_24_1310,SST,3.0.7,24.018728940273068,
go,sst_images/Left_Arrow.bmp,None,1,756,None,0,38,38,38,,1,1,go,0.25,0.756,1.756,0.7125714540015906,043,Scanner,R,2,2019_Aug_24_1310,SST,3.0.7,24.018728940273068,
go,sst_images/Left_Arrow.bmp,None,1,973,None,0,39,39,39,,1,1,go,0.25,0.973,1.9729999999999999,0.66973715799395,043,Scanner,R,2,2019_Aug_24_1310,SST,3.0.7,24.018728940273068,
go,sst_images/Right_Arrow.bmp,None,2,1165,None,0,40,40,40,,2,1,go,0.25,1.165,2.165,0.6689386979851406,043,Scanner,R,2,2019_Aug_24_1310,SST,3.0.7,24.018728940273068,
stop,sst_images/Right_Arrow.bmp,sst_images/Stop_Arrow.bmp,none,770,None,0,41,41,41,,1,0,stop,0.2,0.77,1.7786771070025862,0.5413228929974139,043,Scanner,R,2,2019_Aug_24_1310,SST,3.0.7,24.018728940273068,
go,sst_images/Left_Arrow.bmp,None,1,867,None,0,42,42,42,,1,1,go,0.2,0.867,1.867,0.7962835489888676,043,Scanner,R,2,2019_Aug_24_1310,SST,3.0.7,24.018728940273068,
go,sst_images/Left_Arrow.bmp,None,1,786,None,0,43,43,43,,1,1,go,0.2,0.786,1.786,0.9243566819932312,043,Scanner,R,2,2019_Aug_24_1310,SST,3.0.7,24.018728940273068,
go,sst_images/Right_Arrow.bmp,None,2,729,None,0,44,44,44,,None,0,go,0.2,0.729,1.729,,043,Scanner,R,2,2019_Aug_24_1310,SST,3.0.7,24.018728940273068,
go,sst_images/Right_Arrow.bmp,None,2,1018,None,0,45,45,45,,2,1,go,0.2,1.018,2.018,0.630152077996172,043,Scanner,R,2,2019_Aug_24_1310,SST,3.0.7,24.018728940273068,
stop,sst_images/Right_Arrow.bmp,sst_images/Stop_Arrow.bmp,none,809,None,0,46,46,46,,2,0,stop,0.15000000000000002,0.809,1.8185480519812556,0.4904519480187446,043,Scanner,R,2,2019_Aug_24_1310,SST,3.0.7,24.018728940273068,
go,sst_images/Right_Arrow.bmp,None,2,950,None,0,47,47,47,,2,1,go,0.15000000000000002,0.95,1.95,0.4642029160168022,043,Scanner,R,2,2019_Aug_24_1310,SST,3.0.7,24.018728940273068,
go,sst_images/Left_Arrow.bmp,None,1,900,None,0,48,48,48,,1,1,go,0.15000000000000002,0.9,1.9,0.7963982330111321,043,Scanner,R,2,2019_Aug_24_1310,SST,3.0.7,24.018728940273068,
go,sst_images/Left_Arrow.bmp,None,1,712,None,0,49,49,49,,1,1,go,0.15000000000000002,0.712,1.712,0.5822217180102598,043,Scanner,R,2,2019_Aug_24_1310,SST,3.0.7,24.018728940273068,
go,sst_images/Left_Arrow.bmp,None,1,834,None,0,50,50,50,,1,1,go,0.15000000000000002,0.834,1.834,0.5015686630213168,043,Scanner,R,2,2019_Aug_24_1310,SST,3.0.7,24.018728940273068,
go,sst_images/Right_Arrow.bmp,None,2,829,None,0,51,51,51,,2,1,go,0.15000000000000002,0.829,1.829,0.5429388690099586,043,Scanner,R,2,2019_Aug_24_1310,SST,3.0.7,24.018728940273068,
go,sst_images/Right_Arrow.bmp,None,2,1145,None,0,52,52,52,,2,1,go,0.15000000000000002,1.145,2.145,0.46451540698762983,043,Scanner,R,2,2019_Aug_24_1310,SST,3.0.7,24.018728940273068,
go,sst_images/Left_Arrow.bmp,None,1,988,None,0,53,53,53,,1,1,go,0.15000000000000002,0.988,1.988,0.5889062679780181,043,Scanner,R,2,2019_Aug_24_1310,SST,3.0.7,24.018728940273068,
go,sst_images/Left_Arrow.bmp,None,1,727,None,0,54,54,54,,1,1,go,0.15000000000000002,0.727,1.7269999999999999,0.7115636200178415,043,Scanner,R,2,2019_Aug_24_1310,SST,3.0.7,24.018728940273068,
stop,sst_images/Left_Arrow.bmp,sst_images/Stop_Arrow.bmp,none,804,None,0,55,55,55,,None,1,stop,0.2,0.804,1.804,,043,Scanner,R,2,2019_Aug_24_1310,SST,3.0.7,24.018728940273068,
go,sst_images/Left_Arrow.bmp,None,1,814,None,0,56,56,56,,1,1,go,0.2,0.814,1.814,0.9213343580195215,043,Scanner,R,2,2019_Aug_24_1310,SST,3.0.7,24.018728940273068,
go,sst_images/Right_Arrow.bmp,None,2,799,None,0,57,57,57,,2,1,go,0.2,0.799,1.799,0.5426217850181274,043,Scanner,R,2,2019_Aug_24_1310,SST,3.0.7,24.018728940273068,
go,sst_images/Left_Arrow.bmp,None,1,840,None,0,58,58,58,,1,1,go,0.2,0.84,1.8399999999999999,0.5444023579766508,043,Scanner,R,2,2019_Aug_24_1310,SST,3.0.7,24.018728940273068,
go,sst_images/Left_Arrow.bmp,None,1,816,None,0,59,59,59,,1,1,go,0.2,0.816,1.8159999999999998,0.6311984320054762,043,Scanner,R,2,2019_Aug_24_1310,SST,3.0.7,24.018728940273068,
stop,sst_images/Right_Arrow.bmp,sst_images/Stop_Arrow.bmp,none,1622,None,0,60,60,60,,None,1,stop,0.25,1.622,2.622,,043,Scanner,R,2,2019_Aug_24_1310,SST,3.0.7,24.018728940273068,
go,sst_images/Right_Arrow.bmp,None,2,787,None,0,61,61,61,,2,1,go,0.25,0.787,1.787,0.589442466996843,043,Scanner,R,2,2019_Aug_24_1310,SST,3.0.7,24.018728940273068,
go,sst_images/Right_Arrow.bmp,None,2,1151,None,0,62,62,62,,2,1,go,0.25,1.151,2.151,0.7918445440009236,043,Scanner,R,2,2019_Aug_24_1310,SST,3.0.7,24.018728940273068,
go,sst_images/Left_Arrow.bmp,None,1,918,None,0,63,63,63,,1,1,go,0.25,0.918,1.9180000000000001,0.5407653920119628,043,Scanner,R,2,2019_Aug_24_1310,SST,3.0.7,24.018728940273068,
go,sst_images/Right_Arrow.bmp,None,2,1159,None,0,64,64,64,,2,1,go,0.25,1.159,2.159,0.45664742100052536,043,Scanner,R,2,2019_Aug_24_1310,SST,3.0.7,24.018728940273068,
go,sst_images/Left_Arrow.bmp,None,1,1249,None,0,65,65,65,,None,0,go,0.25,1.249,2.249,,043,Scanner,R,2,2019_Aug_24_1310,SST,3.0.7,24.018728940273068,
go,sst_images/Right_Arrow.bmp,None,2,828,None,0,66,66,66,,None,0,go,0.25,0.828,1.8279999999999998,,043,Scanner,R,2,2019_Aug_24_1310,SST,3.0.7,24.018728940273068,
go,sst_images/Right_Arrow.bmp,None,2,1596,None,0,67,67,67,,2,1,go,0.25,1.596,2.596,0.6672484349983279,043,Scanner,R,2,2019_Aug_24_1310,SST,3.0.7,24.018728940273068,
go,sst_images/Left_Arrow.bmp,None,1,721,None,0,68,68,68,,1,1,go,0.25,0.721,1.721,0.7114462130120955,043,Scanner,R,2,2019_Aug_24_1310,SST,3.0.7,24.018728940273068,
go,sst_images/Right_Arrow.bmp,None,2,787,None,0,69,69,69,,None,0,go,0.25,0.787,1.787,,043,Scanner,R,2,2019_Aug_24_1310,SST,3.0.7,24.018728940273068,
stop,sst_images/Left_Arrow.bmp,sst_images/Stop_Arrow.bmp,none,936,None,0,70,70,70,,None,1,stop,0.3,0.936,1.9360000000000002,,043,Scanner,R,2,2019_Aug_24_1310,SST,3.0.7,24.018728940273068,
go,sst_images/Left_Arrow.bmp,None,1,839,None,0,71,71,71,,None,0,go,0.3,0.839,1.839,,043,Scanner,R,2,2019_Aug_24_1310,SST,3.0.7,24.018728940273068,
go,sst_images/Right_Arrow.bmp,None,2,1103,None,0,72,72,72,,None,0,go,0.3,1.103,2.1029999999999998,,043,Scanner,R,2,2019_Aug_24_1310,SST,3.0.7,24.018728940273068,
go,sst_images/Left_Arrow.bmp,None,1,1102,None,0,73,73,73,,None,0,go,0.3,1.102,2.1020000000000003,,043,Scanner,R,2,2019_Aug_24_1310,SST,3.0.7,24.018728940273068,
go,sst_images/Right_Arrow.bmp,None,2,938,None,0,74,74,74,,None,0,go,0.3,0.938,1.938,,043,Scanner,R,2,2019_Aug_24_1310,SST,3.0.7,24.018728940273068,
go,sst_images/Right_Arrow.bmp,None,2,1757,None,0,75,75,75,,None,0,go,0.3,1.757,2.7569999999999997,,043,Scanner,R,2,2019_Aug_24_1310,SST,3.0.7,24.018728940273068,
go,sst_images/Left_Arrow.bmp,None,1,734,None,0,76,76,76,,1,1,go,0.3,0.734,1.734,0.8743493969959673,043,Scanner,R,2,2019_Aug_24_1310,SST,3.0.7,24.018728940273068,
go,sst_images/Left_Arrow.bmp,None,1,780,None,0,77,77,77,,None,0,go,0.3,0.78,1.78,,043,Scanner,R,2,2019_Aug_24_1310,SST,3.0.7,24.018728940273068,
go,sst_images/Right_Arrow.bmp,None,2,832,None,0,78,78,78,,None,0,go,0.3,0.832,1.8319999999999999,,043,Scanner,R,2,2019_Aug_24_1310,SST,3.0.7,24.018728940273068,
stop,sst_images/Right_Arrow.bmp,sst_images/Stop_Arrow.bmp,none,891,None,0,79,79,79,,None,1,stop,0.35,0.891,1.891,,043,Scanner,R,2,2019_Aug_24_1310,SST,3.0.7,24.018728940273068,
go,sst_images/Right_Arrow.bmp,None,2,1138,None,0,80,80,80,,2,1,go,0.35,1.138,2.138,0.5459701030049473,043,Scanner,R,2,2019_Aug_24_1310,SST,3.0.7,24.018728940273068,
go,sst_images/Right_Arrow.bmp,None,2,838,None,0,81,81,81,,2,1,go,0.35,0.838,1.838,0.7505646390200127,043,Scanner,R,2,2019_Aug_24_1310,SST,3.0.7,24.018728940273068,
go,sst_images/Left_Arrow.bmp,None,1,988,None,0,82,82,82,,1,1,go,0.35,0.988,1.988,0.5421380439947825,043,Scanner,R,2,2019_Aug_24_1310,SST,3.0.7,24.018728940273068,
go,sst_images/Left_Arrow.bmp,None,1,820,None,0,83,83,83,,1,1,go,0.35,0.82,1.8199999999999998,0.5836842959979549,043,Scanner,R,2,2019_Aug_24_1310,SST,3.0.7,24.018728940273068,
stop,sst_images/Right_Arrow.bmp,sst_images/Stop_Arrow.bmp,none,871,None,0,84,84,84,,2,0,stop,0.3,0.871,1.8694057740133723,0.6515942259866279,043,Scanner,R,2,2019_Aug_24_1310,SST,3.0.7,24.018728940273068,
go,sst_images/Right_Arrow.bmp,None,2,867,None,0,85,85,85,,2,1,go,0.3,0.867,1.867,0.8378235490235966,043,Scanner,R,2,2019_Aug_24_1310,SST,3.0.7,24.018728940273068,
go,sst_images/Left_Arrow.bmp,None,1,1037,None,0,86,86,86,,1,1,go,0.3,1.037,2.037,0.5499984640046023,043,Scanner,R,2,2019_Aug_24_1310,SST,3.0.7,24.018728940273068,
stop,sst_images/Left_Arrow.bmp,sst_images/Stop_Arrow.bmp,none,1437,None,0,87,87,87,,1,0,stop,0.25,1.437,2.4954495140006765,0.5415504859993234,043,Scanner,R,2,2019_Aug_24_1310,SST,3.0.7,24.018728940273068,
go,sst_images/Right_Arrow.bmp,None,2,1223,None,0,88,88,88,,2,1,go,0.25,1.223,2.223,0.5854754539905116,043,Scanner,R,2,2019_Aug_24_1310,SST,3.0.7,24.018728940273068,
go,sst_images/Left_Arrow.bmp,None,1,1288,None,0,89,89,89,,1,1,go,0.25,1.288,2.2880000000000003,0.5472419460129458,043,Scanner,R,2,2019_Aug_24_1310,SST,3.0.7,24.018728940273068,
go,sst_images/Right_Arrow.bmp,None,2,944,None,0,90,90,90,,2,1,go,0.25,0.944,1.944,0.4972459959972184,043,Scanner,R,2,2019_Aug_24_1310,SST,3.0.7,24.018728940273068,
go,sst_images/Left_Arrow.bmp,None,1,1732,None,0,91,91,91,,1,1,go,0.25,1.732,2.732,0.5457000220194459,043,Scanner,R,2,2019_Aug_24_1310,SST,3.0.7,24.018728940273068,
go,sst_images/Left_Arrow.bmp,None,1,950,None,0,92,92,92,,2,0,go,0.25,0.95,1.95,0.6155100780015346,043,Scanner,R,2,2019_Aug_24_1310,SST,3.0.7,24.018728940273068,
stop,sst_images/Right_Arrow.bmp,sst_images/Stop_Arrow.bmp,none,712,None,0,93,93,93,,None,1,stop,0.3,0.712,1.712,,043,Scanner,R,2,2019_Aug_24_1310,SST,3.0.7,24.018728940273068,
go,sst_images/Left_Arrow.bmp,None,1,908,None,0,94,94,94,,1,1,go,0.3,0.908,1.908,0.8375251439865679,043,Scanner,R,2,2019_Aug_24_1310,SST,3.0.7,24.018728940273068,
go,sst_images/Right_Arrow.bmp,None,2,725,None,0,95,95,95,,None,0,go,0.3,0.725,1.725,,043,Scanner,R,2,2019_Aug_24_1310,SST,3.0.7,24.018728940273068,
go,sst_images/Left_Arrow.bmp,None,1,773,None,0,96,96,96,,1,1,go,0.3,0.773,1.7730000000000001,0.7083122109761462,043,Scanner,R,2,2019_Aug_24_1310,SST,3.0.7,24.018728940273068,
go,sst_images/Right_Arrow.bmp,None,2,965,None,0,97,97,97,,2,1,go,0.3,0.965,1.9649999999999999,0.8756174590089358,043,Scanner,R,2,2019_Aug_24_1310,SST,3.0.7,24.018728940273068,
go,sst_images/Right_Arrow.bmp,None,2,1060,None,0,98,98,98,,2,1,go,0.3,1.06,2.06,0.6683716120023746,043,Scanner,R,2,2019_Aug_24_1310,SST,3.0.7,24.018728940273068,
go,sst_images/Left_Arrow.bmp,None,1,961,None,0,99,99,99,,1,1,go,0.3,0.961,1.9609999999999999,0.6699308109818958,043,Scanner,R,2,2019_Aug_24_1310,SST,3.0.7,24.018728940273068,
go,sst_images/Right_Arrow.bmp,None,2,1072,None,0,100,100,100,,2,1,go,0.3,1.072,2.072,0.7145197280042339,043,Scanner,R,2,2019_Aug_24_1310,SST,3.0.7,24.018728940273068,
go,sst_images/Right_Arrow.bmp,None,2,748,None,0,101,101,101,,2,1,go,0.3,0.748,1.748,0.5463128130068071,043,Scanner,R,2,2019_Aug_24_1310,SST,3.0.7,24.018728940273068,
go,sst_images/Left_Arrow.bmp,None,1,1392,None,0,102,102,102,,1,1,go,0.3,1.392,2.392,0.5454416239808779,043,Scanner,R,2,2019_Aug_24_1310,SST,3.0.7,24.018728940273068,
go,sst_images/Left_Arrow.bmp,None,1,763,None,0,103,103,103,,None,0,go,0.3,0.763,1.763,,043,Scanner,R,2,2019_Aug_24_1310,SST,3.0.7,24.018728940273068,
go,sst_images/Right_Arrow.bmp,None,2,714,None,0,104,104,104,,None,0,go,0.3,0.714,1.714,,043,Scanner,R,2,2019_Aug_24_1310,SST,3.0.7,24.018728940273068,
go,sst_images/Right_Arrow.bmp,None,2,864,None,0,105,105,105,,None,0,go,0.3,0.864,1.8639999999999999,,043,Scanner,R,2,2019_Aug_24_1310,SST,3.0.7,24.018728940273068,
go,sst_images/Left_Arrow.bmp,None,1,713,None,0,106,106,106,,1,1,go,0.3,0.713,1.713,0.6715781240200158,043,Scanner,R,2,2019_Aug_24_1310,SST,3.0.7,24.018728940273068,
go,sst_images/Right_Arrow.bmp,None,2,859,None,0,107,107,107,,None,0,go,0.3,0.859,1.859,,043,Scanner,R,2,2019_Aug_24_1310,SST,3.0.7,24.018728940273068,
go,sst_images/Left_Arrow.bmp,None,1,871,None,0,108,108,108,,1,1,go,0.3,0.871,1.871,0.9163545180053916,043,Scanner,R,2,2019_Aug_24_1310,SST,3.0.7,24.018728940273068,
go,sst_images/Right_Arrow.bmp,None,2,704,None,0,109,109,109,,2,1,go,0.3,0.704,1.704,0.7133371880045161,043,Scanner,R,2,2019_Aug_24_1310,SST,3.0.7,24.018728940273068,
stop,sst_images/Right_Arrow.bmp,sst_images/Stop_Arrow.bmp,none,956,None,0,110,110,110,,2,0,stop,0.25,0.956,1.9443208469778765,0.6116791530221235,043,Scanner,R,2,2019_Aug_24_1310,SST,3.0.7,24.018728940273068,
go,sst_images/Left_Arrow.bmp,None,1,1077,None,0,111,111,111,,1,1,go,0.25,1.077,2.077,0.7114637799968477,043,Scanner,R,2,2019_Aug_24_1310,SST,3.0.7,24.018728940273068,
go,sst_images/Right_Arrow.bmp,None,2,802,None,0,112,112,112,,2,1,go,0.25,0.802,1.802,0.5459693250013515,043,Scanner,R,2,2019_Aug_24_1310,SST,3.0.7,24.018728940273068,
go,sst_images/Left_Arrow.bmp,None,1,795,None,0,113,113,113,,1,1,go,0.25,0.795,1.795,0.6258210389933083,043,Scanner,R,2,2019_Aug_24_1310,SST,3.0.7,24.018728940273068,
go,sst_images/Right_Arrow.bmp,None,2,763,None,0,114,114,114,,2,1,go,0.25,0.763,1.763,0.5854928180051502,043,Scanner,R,2,2019_Aug_24_1310,SST,3.0.7,24.018728940273068,
go,sst_images/Left_Arrow.bmp,None,1,899,None,0,115,115,115,,1,1,go,0.25,0.899,1.899,0.6726220900018234,043,Scanner,R,2,2019_Aug_24_1310,SST,3.0.7,24.018728940273068,
stop,sst_images/Left_Arrow.bmp,sst_images/Stop_Arrow.bmp,none,876,None,0,116,116,116,,1,0,stop,0.2,0.876,1.9063656929871067,0.5196343070128933,043,Scanner,R,2,2019_Aug_24_1310,SST,3.0.7,24.018728940273068,
go,sst_images/Right_Arrow.bmp,None,2,809,None,0,117,117,117,,2,1,go,0.2,0.809,1.8090000000000002,0.7111553010181524,043,Scanner,R,2,2019_Aug_24_1310,SST,3.0.7,24.018728940273068,
go,sst_images/Left_Arrow.bmp,None,1,1253,None,0,118,118,118,,1,1,go,0.2,1.253,2.253,0.7099840519949794,043,Scanner,R,2,2019_Aug_24_1310,SST,3.0.7,24.018728940273068,
stop,sst_images/Left_Arrow.bmp,sst_images/Stop_Arrow.bmp,none,786,None,0,119,119,119,,None,1,stop,0.25,0.786,1.786,,043,Scanner,R,2,2019_Aug_24_1310,SST,3.0.7,24.018728940273068,
go,sst_images/Right_Arrow.bmp,None,2,718,None,0,120,120,120,,2,1,go,0.25,0.718,1.718,0.5866404190019239,043,Scanner,R,2,2019_Aug_24_1310,SST,3.0.7,24.018728940273068,
go,sst_images/Right_Arrow.bmp,None,2,883,None,0,121,121,121,,2,1,go,0.25,0.883,1.883,0.7091052230098285,043,Scanner,R,2,2019_Aug_24_1310,SST,3.0.7,24.018728940273068,
stop,sst_images/Right_Arrow.bmp,sst_images/Stop_Arrow.bmp,none,763,None,0,122,122,122,,None,1,stop,0.3,0.763,1.7630000000000001,,043,Scanner,R,2,2019_Aug_24_1310,SST,3.0.7,24.018728940273068,
go,sst_images/Left_Arrow.bmp,None,1,947,None,0,123,123,123,,1,1,go,0.3,0.947,1.947,0.5459418010141235,043,Scanner,R,2,2019_Aug_24_1310,SST,3.0.7,24.018728940273068,
go,sst_images/Left_Arrow.bmp,None,1,908,None,0,124,124,124,,1,1,go,0.3,0.908,1.908,0.710134413006017,043,Scanner,R,2,2019_Aug_24_1310,SST,3.0.7,24.018728940273068,
go,sst_images/Left_Arrow.bmp,None,1,929,None,0,125,125,125,,1,1,go,0.3,0.929,1.929,0.7133181799727026,043,Scanner,R,2,2019_Aug_24_1310,SST,3.0.7,24.018728940273068,
stop,sst_images/Left_Arrow.bmp,sst_images/Stop_Arrow.bmp,none,1229,None,0,126,126,126,,1,0,stop,0.25,1.229,2.227160642012954,0.6018393579870462,043,Scanner,R,2,2019_Aug_24_1310,SST,3.0.7,24.018728940273068,
go,sst_images/Right_Arrow.bmp,None,2,709,None,0,127,127,127,,2,1,go,0.25,0.709,1.709,0.6718479499977548,043,Scanner,R,2,2019_Aug_24_1310,SST,3.0.7,24.018728940273068,
go,sst_images/Left_Arrow.bmp,None,1,781,None,0,128,128,128,,1,1,go,0.25,0.781,1.7810000000000001,0.6714606619789265,043,Scanner,R,2,2019_Aug_24_1310,SST,3.0.7,24.018728940273068,
go,sst_images/Left_Arrow.bmp,None,1,1437,None,0,129,129,129,,1,1,go,0.25,1.437,2.4370000000000003,0.5833017819968518,043,Scanner,R,2,2019_Aug_24_1310,SST,3.0.7,24.018728940273068,
go,sst_images/Left_Arrow.bmp,None,1,1284,None,0,130,130,130,,1,1,go,0.25,1.284,2.284,0.5864007670024876,043,Scanner,R,2,2019_Aug_24_1310,SST,3.0.7,24.018728940273068,
go,sst_images/Right_Arrow.bmp,None,2,862,None,0,131,131,131,,2,1,go,0.25,0.862,1.862,0.6716541369969491,043,Scanner,R,2,2019_Aug_24_1310,SST,3.0.7,24.018728940273068,
stop,sst_images/Left_Arrow.bmp,sst_images/Stop_Arrow.bmp,none,739,None,0,132,132,132,,1,0,stop,0.2,0.739,1.8543645270213018,0.4346354729786981,043,Scanner,R,2,2019_Aug_24_1310,SST,3.0.7,24.018728940273068,
go,sst_images/Left_Arrow.bmp,None,1,749,None,0,133,133,133,,2,0,go,0.2,0.749,1.749,0.4635419190162793,043,Scanner,R,2,2019_Aug_24_1310,SST,3.0.7,24.018728940273068,
go,sst_images/Left_Arrow.bmp,None,1,890,None,0,134,134,134,,1,1,go,0.2,0.89,1.8900000000000001,0.4636075340094976,043,Scanner,R,2,2019_Aug_24_1310,SST,3.0.7,24.018728940273068,
go,sst_images/Right_Arrow.bmp,None,2,759,None,0,135,135,135,,2,1,go,0.2,0.759,1.759,0.6287158940103836,043,Scanner,R,2,2019_Aug_24_1310,SST,3.0.7,24.018728940273068,
go,sst_images/Right_Arrow.bmp,None,2,833,None,0,136,136,136,,2,1,go,0.2,0.833,1.833,0.7076247989898548,043,Scanner,R,2,2019_Aug_24_1310,SST,3.0.7,24.018728940273068,
go,sst_images/Left_Arrow.bmp,None,1,785,None,0,137,137,137,,None,0,go,0.2,0.785,1.7850000000000001,,043,Scanner,R,2,2019_Aug_24_1310,SST,3.0.7,24.018728940273068,
stop,sst_images/Right_Arrow.bmp,sst_images/Stop_Arrow.bmp,none,835,None,0,138,138,138,,None,1,stop,0.25,0.835,1.835,,043,Scanner,R,2,2019_Aug_24_1310,SST,3.0.7,24.018728940273068,
go,sst_images/Right_Arrow.bmp,None,2,839,None,0,139,139,139,,None,0,go,0.25,0.839,1.839,,043,Scanner,R,2,2019_Aug_24_1310,SST,3.0.7,24.018728940273068,
go,sst_images/Left_Arrow.bmp,None,1,731,None,0,140,140,140,,1,1,go,0.25,0.731,1.7309999999999999,0.7946968879841734,043,Scanner,R,2,2019_Aug_24_1310,SST,3.0.7,24.018728940273068,
stop,sst_images/Left_Arrow.bmp,sst_images/Stop_Arrow.bmp,none,721,None,0,141,141,141,,None,1,stop,0.3,0.721,1.7209999999999999,,043,Scanner,R,2,2019_Aug_24_1310,SST,3.0.7,24.018728940273068,
go,sst_images/Left_Arrow.bmp,None,1,797,None,0,142,142,142,,1,1,go,0.3,0.797,1.7970000000000002,0.5461122230044566,043,Scanner,R,2,2019_Aug_24_1310,SST,3.0.7,24.018728940273068,
go,sst_images/Right_Arrow.bmp,None,2,779,None,0,143,143,143,,2,1,go,0.3,0.779,1.779,0.875996765011223,043,Scanner,R,2,2019_Aug_24_1310,SST,3.0.7,24.018728940273068,
go,sst_images/Left_Arrow.bmp,None,1,936,None,0,144,144,144,,1,1,go,0.3,0.936,1.936,0.6285967550065834,043,Scanner,R,2,2019_Aug_24_1310,SST,3.0.7,24.018728940273068,
go,sst_images/Right_Arrow.bmp,None,2,1044,None,0,145,145,145,,2,1,go,0.3,1.044,2.044,0.8769966659892816,043,Scanner,R,2,2019_Aug_24_1310,SST,3.0.7,24.018728940273068,
go,sst_images/Left_Arrow.bmp,None,1,721,None,0,146,146,146,,None,0,go,0.3,0.721,1.721,,043,Scanner,R,2,2019_Aug_24_1310,SST,3.0.7,24.018728940273068,
go,sst_images/Right_Arrow.bmp,None,2,747,None,0,147,147,147,,2,1,go,0.3,0.747,1.7469999999999999,0.5879254250030499,043,Scanner,R,2,2019_Aug_24_1310,SST,3.0.7,24.018728940273068,
go,sst_images/Right_Arrow.bmp,None,2,764,None,0,148,148,148,,2,1,go,0.3,0.764,1.764,0.6306001740158536,043,Scanner,R,2,2019_Aug_24_1310,SST,3.0.7,24.018728940273068,
stop,sst_images/Right_Arrow.bmp,sst_images/Stop_Arrow.bmp,none,745,None,0,149,149,149,,2,0,stop,0.25,0.745,1.766695472992724,0.5783045270072762,043,Scanner,R,2,2019_Aug_24_1310,SST,3.0.7,24.018728940273068,
go,sst_images/Left_Arrow.bmp,None,1,728,None,0,150,150,150,,1,1,go,0.25,0.728,1.728,0.6297119199880399,043,Scanner,R,2,2019_Aug_24_1310,SST,3.0.7,24.018728940273068,
go,sst_images/Right_Arrow.bmp,None,2,736,None,0,151,151,151,,2,1,go,0.25,0.736,1.736,0.629950134025421,043,Scanner,R,2,2019_Aug_24_1310,SST,3.0.7,24.018728940273068,
go,sst_images/Left_Arrow.bmp,None,1,753,None,0,152,152,152,,1,1,go,0.25,0.753,1.7530000000000001,0.6191164430056233,043,Scanner,R,2,2019_Aug_24_1310,SST,3.0.7,24.018728940273068,
go,sst_images/Right_Arrow.bmp,None,2,775,None,0,153,153,153,,2,1,go,0.25,0.775,1.775,0.5413244329974987,043,Scanner,R,2,2019_Aug_24_1310,SST,3.0.7,24.018728940273068,
go,sst_images/Left_Arrow.bmp,None,1,823,None,0,154,154,154,,1,1,go,0.25,0.823,1.823,0.621813639998436,043,Scanner,R,2,2019_Aug_24_1310,SST,3.0.7,24.018728940273068,
go,sst_images/Right_Arrow.bmp,None,2,791,None,0,155,155,155,,2,1,go,0.25,0.791,1.791,0.5050610179896466,043,Scanner,R,2,2019_Aug_24_1310,SST,3.0.7,24.018728940273068,
go,sst_images/Left_Arrow.bmp,None,1,831,None,0,156,156,156,,1,1,go,0.25,0.831,1.831,0.5007329169893637,043,Scanner,R,2,2019_Aug_24_1310,SST,3.0.7,24.018728940273068,
stop,sst_images/Right_Arrow.bmp,sst_images/Stop_Arrow.bmp,none,988,None,0,157,157,157,,None,1,stop,0.3,0.988,1.988,,043,Scanner,R,2,2019_Aug_24_1310,SST,3.0.7,24.018728940273068,
go,sst_images/Left_Arrow.bmp,None,1,873,None,0,158,158,158,,1,1,go,0.3,0.873,1.873,0.5040320889966097,043,Scanner,R,2,2019_Aug_24_1310,SST,3.0.7,24.018728940273068,
go,sst_images/Right_Arrow.bmp,None,2,820,None,0,159,159,159,,2,1,go,0.3,0.82,1.8199999999999998,0.6285659919958562,043,Scanner,R,2,2019_Aug_24_1310,SST,3.0.7,24.018728940273068,
go,sst_images/Left_Arrow.bmp,None,1,718,None,0,160,160,160,,1,1,go,0.3,0.718,1.718,0.5852469759993255,043,Scanner,R,2,2019_Aug_24_1310,SST,3.0.7,24.018728940273068,
stop,sst_images/Left_Arrow.bmp,sst_images/Stop_Arrow.bmp,none,1060,None,0,161,161,161,,1,0,stop,0.25,1.06,2.1120063450036106,0.5479936549963895,043,Scanner,R,2,2019_Aug_24_1310,SST,3.0.7,24.018728940273068,
go,sst_images/Right_Arrow.bmp,None,2,843,None,0,162,162,162,,2,1,go,0.25,0.843,1.843,0.5445348710054532,043,Scanner,R,2,2019_Aug_24_1310,SST,3.0.7,24.018728940273068,
go,sst_images/Right_Arrow.bmp,None,2,1088,None,0,163,163,163,,1,0,go,0.25,1.088,2.088,0.5815317339729518,043,Scanner,R,2,2019_Aug_24_1310,SST,3.0.7,24.018728940273068,
go,sst_images/Right_Arrow.bmp,None,2,1047,None,0,164,164,164,,2,1,go,0.25,1.047,2.0469999999999997,0.6216380670084618,043,Scanner,R,2,2019_Aug_24_1310,SST,3.0.7,24.018728940273068,
go,sst_images/Left_Arrow.bmp,None,1,890,None,0,165,165,165,,1,1,go,0.25,0.89,1.8900000000000001,0.7547573549964,043,Scanner,R,2,2019_Aug_24_1310,SST,3.0.7,24.018728940273068,
stop,sst_images/Left_Arrow.bmp,sst_images/Stop_Arrow.bmp,none,736,None,0,166,166,166,,None,1,stop,0.3,0.736,1.736,,043,Scanner,R,2,2019_Aug_24_1310,SST,3.0.7,24.018728940273068,
go,sst_images/Right_Arrow.bmp,None,2,787,None,0,167,167,167,,2,1,go,0.3,0.787,1.787,0.7940666849899571,043,Scanner,R,2,2019_Aug_24_1310,SST,3.0.7,24.018728940273068,
go,sst_images/Right_Arrow.bmp,None,2,1111,None,0,168,168,168,,2,1,go,0.3,1.111,2.1109999999999998,0.6173998260055669,043,Scanner,R,2,2019_Aug_24_1310,SST,3.0.7,24.018728940273068,
go,sst_images/Left_Arrow.bmp,None,1,755,None,0,169,169,169,,1,1,go,0.3,0.755,1.755,0.7076978940167464,043,Scanner,R,2,2019_Aug_24_1310,SST,3.0.7,24.018728940273068,
stop,sst_images/Left_Arrow.bmp,sst_images/Stop_Arrow.bmp,none,771,None,0,170,170,170,,None,1,stop,0.35,0.771,1.7710000000000001,,043,Scanner,R,2,2019_Aug_24_1310,SST,3.0.7,24.018728940273068,
go,sst_images/Right_Arrow.bmp,None,2,771,None,0,171,171,171,,2,1,go,0.35,0.771,1.771,0.6716338099795394,043,Scanner,R,2,2019_Aug_24_1310,SST,3.0.7,24.018728940273068,
go,sst_images/Right_Arrow.bmp,None,2,731,None,0,172,172,172,,2,1,go,0.35,0.731,1.7309999999999999,0.8775687259912957,043,Scanner,R,2,2019_Aug_24_1310,SST,3.0.7,24.018728940273068,
go,sst_images/Right_Arrow.bmp,None,2,742,None,0,173,173,173,,2,1,go,0.35,0.742,1.742,0.6268926789925899,043,Scanner,R,2,2019_Aug_24_1310,SST,3.0.7,24.018728940273068,
stop,sst_images/Right_Arrow.bmp,sst_images/Stop_Arrow.bmp,none,763,None,0,174,174,174,,None,1,stop,0.39999999999999997,0.763,1.7630000000000001,,043,Scanner,R,2,2019_Aug_24_1310,SST,3.0.7,24.018728940273068,
go,sst_images/Left_Arrow.bmp,None,1,704,None,0,175,175,175,,1,1,go,0.39999999999999997,0.704,1.704,0.838119268999435,043,Scanner,R,2,2019_Aug_24_1310,SST,3.0.7,24.018728940273068,
go,sst_images/Right_Arrow.bmp,None,2,728,None,0,176,176,176,,2,1,go,0.39999999999999997,0.728,1.728,0.6710439870075788,043,Scanner,R,2,2019_Aug_24_1310,SST,3.0.7,24.018728940273068,
go,sst_images/Left_Arrow.bmp,None,1,872,None,0,177,177,177,,1,1,go,0.39999999999999997,0.872,1.8719999999999999,0.5887866799894255,043,Scanner,R,2,2019_Aug_24_1310,SST,3.0.7,24.018728940273068,
stop,sst_images/Left_Arrow.bmp,sst_images/Stop_Arrow.bmp,none,1622,None,0,178,178,178,,None,1,stop,0.44999999999999996,1.622,2.622,,043,Scanner,R,2,2019_Aug_24_1310,SST,3.0.7,24.018728940273068,
go,sst_images/Right_Arrow.bmp,None,2,738,3692.0,0,179,179,179,,2,1,go,0.44999999999999996,0.738,1.738,0.589518352993764,043,Scanner,R,2,2019_Aug_24_1310,SST,3.0.7,24.018728940273068,
