trial_type,arrow_1,arrow_2,corrAns,jitter,run_end_fixation,trials.thisRepN,trials.thisTrialN,trials.thisN,trials.thisIndex,randomized TrialOrder,key_response.keys,key_response.corr,key_response.rt,trial_t.routineEndVal,ss_delay,iti_duration,SOA,participant,prac_or_scan,handedness,run,date,expName,psychopyVersion,frameRate,
go,sst_images/Left_Arrow.bmp,None,1,718,None,0,0,0,0,5,1,1,0.6887133340060245,go,0.05,0.718,1.718,043,Scanner,R,1,2019_Aug_24_1304,SST,3.0.7,23.965804707303437,
go,sst_images/Right_Arrow.bmp,None,2,817,None,0,1,1,1,,2,1,0.5083359090203885,go,0.05,0.817,1.817,043,Scanner,R,1,2019_Aug_24_1304,SST,3.0.7,23.965804707303437,
go,sst_images/Right_Arrow.bmp,None,2,702,None,0,2,2,2,,2,1,0.6719610969885252,go,0.05,0.702,1.702,043,Scanner,R,1,2019_Aug_24_1304,SST,3.0.7,23.965804707303437,
stop,sst_images/Right_Arrow.bmp,sst_images/Stop_Arrow.bmp,none,721,None,0,3,3,3,,None,1,,stop,0.1,0.721,1.721,043,Scanner,R,1,2019_Aug_24_1304,SST,3.0.7,23.965804707303437,
go,sst_images/Left_Arrow.bmp,None,1,726,None,0,4,4,4,,1,1,0.5015896539844107,go,0.1,0.726,1.726,043,Scanner,R,1,2019_Aug_24_1304,SST,3.0.7,23.965804707303437,
go,sst_images/Left_Arrow.bmp,None,1,949,None,0,5,5,5,,1,1,0.5832504339923616,go,0.1,0.949,1.9489999999999998,043,Scanner,R,1,2019_Aug_24_1304,SST,3.0.7,23.965804707303437,
go,sst_images/Right_Arrow.bmp,None,2,743,None,0,6,6,6,,2,1,0.49709013698156923,go,0.1,0.743,1.7429999999999999,043,Scanner,R,1,2019_Aug_24_1304,SST,3.0.7,23.965804707303437,
go,sst_images/Left_Arrow.bmp,None,1,735,None,0,7,7,7,,1,1,0.418468980002217,go,0.1,0.735,1.7349999999999999,043,Scanner,R,1,2019_Aug_24_1304,SST,3.0.7,23.965804707303437,
stop,sst_images/Left_Arrow.bmp,sst_images/Stop_Arrow.bmp,none,1283,None,0,8,8,8,,None,1,,stop,0.15000000000000002,1.283,2.283,043,Scanner,R,1,2019_Aug_24_1304,SST,3.0.7,23.965804707303437,
go,sst_images/Right_Arrow.bmp,None,2,1396,None,0,9,9,9,,2,1,0.6731678229989484,go,0.15000000000000002,1.396,2.396,043,Scanner,R,1,2019_Aug_24_1304,SST,3.0.7,23.965804707303437,
go,sst_images/Right_Arrow.bmp,None,2,1045,None,0,10,10,10,,2,1,0.5895275750081055,go,0.15000000000000002,1.045,2.045,043,Scanner,R,1,2019_Aug_24_1304,SST,3.0.7,23.965804707303437,
go,sst_images/Left_Arrow.bmp,None,1,758,None,0,11,11,11,,1,1,0.4644325269910041,go,0.15000000000000002,0.758,1.758,043,Scanner,R,1,2019_Aug_24_1304,SST,3.0.7,23.965804707303437,
go,sst_images/Right_Arrow.bmp,None,2,1440,None,0,12,12,12,,2,1,0.5032432640145998,go,0.15000000000000002,1.44,2.44,043,Scanner,R,1,2019_Aug_24_1304,SST,3.0.7,23.965804707303437,
go,sst_images/Left_Arrow.bmp,None,1,1143,None,0,13,13,13,,1,1,0.4197291520249564,go,0.15000000000000002,1.143,2.143,043,Scanner,R,1,2019_Aug_24_1304,SST,3.0.7,23.965804707303437,
go,sst_images/Left_Arrow.bmp,None,1,721,None,0,14,14,14,,1,1,0.4986960960086435,go,0.15000000000000002,0.721,1.721,043,Scanner,R,1,2019_Aug_24_1304,SST,3.0.7,23.965804707303437,
stop,sst_images/Left_Arrow.bmp,sst_images/Stop_Arrow.bmp,none,765,None,0,15,15,15,,None,1,,stop,0.2,0.765,1.765,043,Scanner,R,1,2019_Aug_24_1304,SST,3.0.7,23.965804707303437,
go,sst_images/Left_Arrow.bmp,None,1,1009,None,0,16,16,16,,1,1,0.7571643329865765,go,0.2,1.009,2.009,043,Scanner,R,1,2019_Aug_24_1304,SST,3.0.7,23.965804707303437,
go,sst_images/Right_Arrow.bmp,None,2,994,None,0,17,17,17,,2,1,0.42181863301084377,go,0.2,0.994,1.994,043,Scanner,R,1,2019_Aug_24_1304,SST,3.0.7,23.965804707303437,
go,sst_images/Left_Arrow.bmp,None,1,837,None,0,18,18,18,,1,1,0.42011082198587246,go,0.2,0.837,1.837,043,Scanner,R,1,2019_Aug_24_1304,SST,3.0.7,23.965804707303437,
stop,sst_images/Right_Arrow.bmp,sst_images/Stop_Arrow.bmp,none,710,None,0,19,19,19,,None,1,,stop,0.25,0.71,1.71,043,Scanner,R,1,2019_Aug_24_1304,SST,3.0.7,23.965804707303437,
go,sst_images/Left_Arrow.bmp,None,1,908,None,0,20,20,20,,1,1,0.5046985480003059,go,0.25,0.908,1.908,043,Scanner,R,1,2019_Aug_24_1304,SST,3.0.7,23.965804707303437,
go,sst_images/Right_Arrow.bmp,None,2,731,None,0,21,21,21,,2,1,0.45947183400858194,go,0.25,0.731,1.7309999999999999,043,Scanner,R,1,2019_Aug_24_1304,SST,3.0.7,23.965804707303437,
go,sst_images/Left_Arrow.bmp,None,1,1486,None,0,22,22,22,,1,1,0.41874469799222425,go,0.25,1.486,2.4859999999999998,043,Scanner,R,1,2019_Aug_24_1304,SST,3.0.7,23.965804707303437,
go,sst_images/Right_Arrow.bmp,None,2,1113,None,0,23,23,23,,None,0,,go,0.25,1.113,2.113,043,Scanner,R,1,2019_Aug_24_1304,SST,3.0.7,23.965804707303437,
stop,sst_images/Right_Arrow.bmp,sst_images/Stop_Arrow.bmp,none,962,None,0,24,24,24,,None,1,,stop,0.3,0.962,1.962,043,Scanner,R,1,2019_Aug_24_1304,SST,3.0.7,23.965804707303437,
go,sst_images/Left_Arrow.bmp,None,1,761,None,0,25,25,25,,1,1,0.5443522260175087,go,0.3,0.761,1.7610000000000001,043,Scanner,R,1,2019_Aug_24_1304,SST,3.0.7,23.965804707303437,
go,sst_images/Right_Arrow.bmp,None,2,836,None,0,26,26,26,,2,1,0.5053902310028207,go,0.3,0.836,1.8359999999999999,043,Scanner,R,1,2019_Aug_24_1304,SST,3.0.7,23.965804707303437,
go,sst_images/Right_Arrow.bmp,None,2,1081,None,0,27,27,27,,1,0,0.539065335993655,go,0.3,1.081,2.081,043,Scanner,R,1,2019_Aug_24_1304,SST,3.0.7,23.965804707303437,
stop,sst_images/Left_Arrow.bmp,sst_images/Stop_Arrow.bmp,none,781,None,0,28,28,28,,1,0,0.4427200299978722,stop,0.25,0.781,1.938279970002128,043,Scanner,R,1,2019_Aug_24_1304,SST,3.0.7,23.965804707303437,
go,sst_images/Left_Arrow.bmp,None,1,962,None,0,29,29,29,,1,1,0.546396502002608,go,0.25,0.962,1.962,043,Scanner,R,1,2019_Aug_24_1304,SST,3.0.7,23.965804707303437,
go,sst_images/Right_Arrow.bmp,None,2,1037,None,0,30,30,30,,2,1,0.46026761099346913,go,0.25,1.037,2.037,043,Scanner,R,1,2019_Aug_24_1304,SST,3.0.7,23.965804707303437,
go,sst_images/Right_Arrow.bmp,None,2,908,None,0,31,31,31,,2,1,0.5853753949922975,go,0.25,0.908,1.908,043,Scanner,R,1,2019_Aug_24_1304,SST,3.0.7,23.965804707303437,
go,sst_images/Left_Arrow.bmp,None,1,798,None,0,32,32,32,,1,1,0.3814615790033713,go,0.25,0.798,1.798,043,Scanner,R,1,2019_Aug_24_1304,SST,3.0.7,23.965804707303437,
stop,sst_images/Right_Arrow.bmp,sst_images/Stop_Arrow.bmp,none,886,None,0,33,33,33,,2,0,0.3794699369755108,stop,0.2,0.886,2.056530063024489,043,Scanner,R,1,2019_Aug_24_1304,SST,3.0.7,23.965804707303437,
go,sst_images/Right_Arrow.bmp,None,2,753,None,0,34,34,34,,1,0,0.4213001630268991,go,0.2,0.753,1.7530000000000001,043,Scanner,R,1,2019_Aug_24_1304,SST,3.0.7,23.965804707303437,
go,sst_images/Left_Arrow.bmp,None,1,703,None,0,35,35,35,,1,1,0.42079371598083526,go,0.2,0.703,1.7029999999999998,043,Scanner,R,1,2019_Aug_24_1304,SST,3.0.7,23.965804707303437,
go,sst_images/Left_Arrow.bmp,None,1,715,None,0,36,36,36,,1,1,0.5452939289971255,go,0.2,0.715,1.7149999999999999,043,Scanner,R,1,2019_Aug_24_1304,SST,3.0.7,23.965804707303437,
stop,sst_images/Right_Arrow.bmp,sst_images/Stop_Arrow.bmp,none,734,None,0,37,37,37,,2,0,0.4009430010046344,stop,0.15000000000000002,0.734,1.8330569989953656,043,Scanner,R,1,2019_Aug_24_1304,SST,3.0.7,23.965804707303437,
go,sst_images/Right_Arrow.bmp,None,2,817,None,0,38,38,38,,1,0,0.42072454298613593,go,0.15000000000000002,0.817,1.817,043,Scanner,R,1,2019_Aug_24_1304,SST,3.0.7,23.965804707303437,
go,sst_images/Right_Arrow.bmp,None,2,1160,None,0,39,39,39,,2,1,0.5451357210113201,go,0.15000000000000002,1.16,2.16,043,Scanner,R,1,2019_Aug_24_1304,SST,3.0.7,23.965804707303437,
go,sst_images/Left_Arrow.bmp,None,1,719,None,0,40,40,40,,1,1,0.41927372198551893,go,0.15000000000000002,0.719,1.7189999999999999,043,Scanner,R,1,2019_Aug_24_1304,SST,3.0.7,23.965804707303437,
go,sst_images/Left_Arrow.bmp,None,1,966,None,0,41,41,41,,1,1,0.5462935030227527,go,0.15000000000000002,0.966,1.966,043,Scanner,R,1,2019_Aug_24_1304,SST,3.0.7,23.965804707303437,
go,sst_images/Right_Arrow.bmp,None,2,838,None,0,42,42,42,,2,1,0.46435118099907413,go,0.15000000000000002,0.838,1.838,043,Scanner,R,1,2019_Aug_24_1304,SST,3.0.7,23.965804707303437,
go,sst_images/Left_Arrow.bmp,None,1,1026,None,0,43,43,43,,1,1,0.4208027510030661,go,0.15000000000000002,1.026,2.026,043,Scanner,R,1,2019_Aug_24_1304,SST,3.0.7,23.965804707303437,
go,sst_images/Left_Arrow.bmp,None,1,752,None,0,44,44,44,,1,1,0.5410590080136899,go,0.15000000000000002,0.752,1.752,043,Scanner,R,1,2019_Aug_24_1304,SST,3.0.7,23.965804707303437,
go,sst_images/Right_Arrow.bmp,None,2,1167,None,0,45,45,45,,2,1,0.4585483979899436,go,0.15000000000000002,1.167,2.167,043,Scanner,R,1,2019_Aug_24_1304,SST,3.0.7,23.965804707303437,
go,sst_images/Right_Arrow.bmp,None,2,1299,None,0,46,46,46,,2,1,0.46252940499107353,go,0.15000000000000002,1.299,2.299,043,Scanner,R,1,2019_Aug_24_1304,SST,3.0.7,23.965804707303437,
go,sst_images/Right_Arrow.bmp,None,2,886,None,0,47,47,47,,2,1,0.45791342901065946,go,0.15000000000000002,0.886,1.8860000000000001,043,Scanner,R,1,2019_Aug_24_1304,SST,3.0.7,23.965804707303437,
go,sst_images/Left_Arrow.bmp,None,1,923,None,0,48,48,48,,2,0,0.2107434130157344,go,0.15000000000000002,0.923,1.923,043,Scanner,R,1,2019_Aug_24_1304,SST,3.0.7,23.965804707303437,
stop,sst_images/Left_Arrow.bmp,sst_images/Stop_Arrow.bmp,none,1265,None,0,49,49,49,,None,1,,stop,0.2,1.265,2.2649999999999997,043,Scanner,R,1,2019_Aug_24_1304,SST,3.0.7,23.965804707303437,
go,sst_images/Left_Arrow.bmp,None,1,841,None,0,50,50,50,,1,1,0.542293147998862,go,0.2,0.841,1.841,043,Scanner,R,1,2019_Aug_24_1304,SST,3.0.7,23.965804707303437,
go,sst_images/Left_Arrow.bmp,None,1,1062,None,0,51,51,51,,1,1,0.6292826450080611,go,0.2,1.062,2.0620000000000003,043,Scanner,R,1,2019_Aug_24_1304,SST,3.0.7,23.965804707303437,
go,sst_images/Right_Arrow.bmp,None,2,750,None,0,52,52,52,,None,0,,go,0.2,0.75,1.75,043,Scanner,R,1,2019_Aug_24_1304,SST,3.0.7,23.965804707303437,
go,sst_images/Right_Arrow.bmp,None,2,825,None,0,53,53,53,,2,1,0.6691251620068215,go,0.2,0.825,1.825,043,Scanner,R,1,2019_Aug_24_1304,SST,3.0.7,23.965804707303437,
go,sst_images/Left_Arrow.bmp,None,1,813,None,0,54,54,54,,1,1,0.46446987200761214,go,0.2,0.813,1.813,043,Scanner,R,1,2019_Aug_24_1304,SST,3.0.7,23.965804707303437,
stop,sst_images/Right_Arrow.bmp,sst_images/Stop_Arrow.bmp,none,733,None,0,55,55,55,,2,0,0.39843464898876846,stop,0.15000000000000002,0.733,1.8345653510112316,043,Scanner,R,1,2019_Aug_24_1304,SST,3.0.7,23.965804707303437,
go,sst_images/Left_Arrow.bmp,None,1,1066,None,0,56,56,56,,1,1,0.5885605849907734,go,0.15000000000000002,1.066,2.066,043,Scanner,R,1,2019_Aug_24_1304,SST,3.0.7,23.965804707303437,
go,sst_images/Left_Arrow.bmp,None,1,712,None,0,57,57,57,,1,1,0.7431626459874678,go,0.15000000000000002,0.712,1.712,043,Scanner,R,1,2019_Aug_24_1304,SST,3.0.7,23.965804707303437,
go,sst_images/Right_Arrow.bmp,None,2,724,None,0,58,58,58,,2,1,0.5055732059990987,go,0.15000000000000002,0.724,1.724,043,Scanner,R,1,2019_Aug_24_1304,SST,3.0.7,23.965804707303437,
go,sst_images/Left_Arrow.bmp,None,1,878,None,0,59,59,59,,1,1,0.5009106349898502,go,0.15000000000000002,0.878,1.8780000000000001,043,Scanner,R,1,2019_Aug_24_1304,SST,3.0.7,23.965804707303437,
stop,sst_images/Left_Arrow.bmp,sst_images/Stop_Arrow.bmp,none,714,None,0,60,60,60,,None,1,,stop,0.2,0.714,1.7139999999999997,043,Scanner,R,1,2019_Aug_24_1304,SST,3.0.7,23.965804707303437,
go,sst_images/Left_Arrow.bmp,None,1,1299,None,0,61,61,61,,1,1,0.5842203230131418,go,0.2,1.299,2.299,043,Scanner,R,1,2019_Aug_24_1304,SST,3.0.7,23.965804707303437,
go,sst_images/Right_Arrow.bmp,None,2,1045,None,0,62,62,62,,2,1,0.4665149580105208,go,0.2,1.045,2.045,043,Scanner,R,1,2019_Aug_24_1304,SST,3.0.7,23.965804707303437,
go,sst_images/Right_Arrow.bmp,None,2,845,None,0,63,63,63,,1,0,0.42214048199821264,go,0.2,0.845,1.845,043,Scanner,R,1,2019_Aug_24_1304,SST,3.0.7,23.965804707303437,
go,sst_images/Left_Arrow.bmp,None,1,847,None,0,64,64,64,,1,1,0.5043767309980467,go,0.2,0.847,1.847,043,Scanner,R,1,2019_Aug_24_1304,SST,3.0.7,23.965804707303437,
go,sst_images/Right_Arrow.bmp,None,2,901,None,0,65,65,65,,2,1,0.45774625000194646,go,0.2,0.901,1.901,043,Scanner,R,1,2019_Aug_24_1304,SST,3.0.7,23.965804707303437,
go,sst_images/Left_Arrow.bmp,None,1,846,None,0,66,66,66,,1,1,0.42000332300085574,go,0.2,0.846,1.846,043,Scanner,R,1,2019_Aug_24_1304,SST,3.0.7,23.965804707303437,
go,sst_images/Right_Arrow.bmp,None,2,701,None,0,67,67,67,,2,1,0.5046227609855123,go,0.2,0.701,1.701,043,Scanner,R,1,2019_Aug_24_1304,SST,3.0.7,23.965804707303437,
stop,sst_images/Right_Arrow.bmp,sst_images/Stop_Arrow.bmp,none,795,None,0,68,68,68,,None,1,,stop,0.25,0.795,1.795,043,Scanner,R,1,2019_Aug_24_1304,SST,3.0.7,23.965804707303437,
go,sst_images/Right_Arrow.bmp,None,2,1009,None,0,69,69,69,,2,1,0.8636192360136192,go,0.25,1.009,2.009,043,Scanner,R,1,2019_Aug_24_1304,SST,3.0.7,23.965804707303437,
go,sst_images/Left_Arrow.bmp,None,1,781,None,0,70,70,70,,1,1,0.46603559399954975,go,0.25,0.781,1.7810000000000001,043,Scanner,R,1,2019_Aug_24_1304,SST,3.0.7,23.965804707303437,
go,sst_images/Right_Arrow.bmp,None,2,766,None,0,71,71,71,,2,1,0.5480795610055793,go,0.25,0.766,1.766,043,Scanner,R,1,2019_Aug_24_1304,SST,3.0.7,23.965804707303437,
go,sst_images/Left_Arrow.bmp,None,1,1022,None,0,72,72,72,,1,1,0.46107556502101943,go,0.25,1.022,2.0220000000000002,043,Scanner,R,1,2019_Aug_24_1304,SST,3.0.7,23.965804707303437,
go,sst_images/Right_Arrow.bmp,None,2,1018,None,0,73,73,73,,2,1,0.8031907179974951,go,0.25,1.018,2.018,043,Scanner,R,1,2019_Aug_24_1304,SST,3.0.7,23.965804707303437,
go,sst_images/Left_Arrow.bmp,None,1,775,None,0,74,74,74,,1,1,0.4615634400106501,go,0.25,0.775,1.775,043,Scanner,R,1,2019_Aug_24_1304,SST,3.0.7,23.965804707303437,
go,sst_images/Right_Arrow.bmp,None,2,922,None,0,75,75,75,,2,1,0.5181432710087392,go,0.25,0.922,1.9220000000000002,043,Scanner,R,1,2019_Aug_24_1304,SST,3.0.7,23.965804707303437,
go,sst_images/Right_Arrow.bmp,None,2,1027,None,0,76,76,76,,2,1,0.46122128699789755,go,0.25,1.027,2.027,043,Scanner,R,1,2019_Aug_24_1304,SST,3.0.7,23.965804707303437,
go,sst_images/Left_Arrow.bmp,None,1,732,None,0,77,77,77,,1,1,0.7116032580088358,go,0.25,0.732,1.732,043,Scanner,R,1,2019_Aug_24_1304,SST,3.0.7,23.965804707303437,
stop,sst_images/Right_Arrow.bmp,sst_images/Stop_Arrow.bmp,none,763,None,0,78,78,78,,None,1,,stop,0.3,0.763,1.7630000000000001,043,Scanner,R,1,2019_Aug_24_1304,SST,3.0.7,23.965804707303437,
go,sst_images/Left_Arrow.bmp,None,1,1101,None,0,79,79,79,,1,1,0.6228796509967651,go,0.3,1.101,2.101,043,Scanner,R,1,2019_Aug_24_1304,SST,3.0.7,23.965804707303437,
go,sst_images/Right_Arrow.bmp,None,2,1110,None,0,80,80,80,,2,1,0.46919819799950346,go,0.3,1.11,2.1100000000000003,043,Scanner,R,1,2019_Aug_24_1304,SST,3.0.7,23.965804707303437,
go,sst_images/Right_Arrow.bmp,None,2,735,None,0,81,81,81,,2,1,0.5815759719989728,go,0.3,0.735,1.7349999999999999,043,Scanner,R,1,2019_Aug_24_1304,SST,3.0.7,23.965804707303437,
go,sst_images/Right_Arrow.bmp,None,2,776,None,0,82,82,82,,2,1,0.5858923679916188,go,0.3,0.776,1.776,043,Scanner,R,1,2019_Aug_24_1304,SST,3.0.7,23.965804707303437,
go,sst_images/Left_Arrow.bmp,None,1,1265,None,0,83,83,83,,2,0,0.41561371201532893,go,0.3,1.265,2.2649999999999997,043,Scanner,R,1,2019_Aug_24_1304,SST,3.0.7,23.965804707303437,
stop,sst_images/Left_Arrow.bmp,sst_images/Stop_Arrow.bmp,none,710,None,0,84,84,84,,1,0,0.48414232599316165,stop,0.25,0.71,1.8258576740068384,043,Scanner,R,1,2019_Aug_24_1304,SST,3.0.7,23.965804707303437,
go,sst_images/Left_Arrow.bmp,None,1,734,None,0,85,85,85,,1,1,0.7115608109743334,go,0.25,0.734,1.734,043,Scanner,R,1,2019_Aug_24_1304,SST,3.0.7,23.965804707303437,
go,sst_images/Right_Arrow.bmp,None,2,1328,None,0,86,86,86,,2,1,0.5047231719945557,go,0.25,1.328,2.3280000000000003,043,Scanner,R,1,2019_Aug_24_1304,SST,3.0.7,23.965804707303437,
go,sst_images/Left_Arrow.bmp,None,1,1339,None,0,87,87,87,,1,1,0.5032784880022518,go,0.25,1.339,2.339,043,Scanner,R,1,2019_Aug_24_1304,SST,3.0.7,23.965804707303437,
go,sst_images/Right_Arrow.bmp,None,2,820,None,0,88,88,88,,2,1,0.49994165400858037,go,0.25,0.82,1.8199999999999998,043,Scanner,R,1,2019_Aug_24_1304,SST,3.0.7,23.965804707303437,
stop,sst_images/Right_Arrow.bmp,sst_images/Stop_Arrow.bmp,none,752,None,0,89,89,89,,2,0,0.5254298670042772,stop,0.2,0.752,1.7765701329957229,043,Scanner,R,1,2019_Aug_24_1304,SST,3.0.7,23.965804707303437,
go,sst_images/Left_Arrow.bmp,None,1,727,None,0,90,90,90,,1,1,0.46282849699491635,go,0.2,0.727,1.7269999999999999,043,Scanner,R,1,2019_Aug_24_1304,SST,3.0.7,23.965804707303437,
go,sst_images/Right_Arrow.bmp,None,2,715,None,0,91,91,91,,2,1,0.380767561000539,go,0.2,0.715,1.7149999999999999,043,Scanner,R,1,2019_Aug_24_1304,SST,3.0.7,23.965804707303437,
stop,sst_images/Right_Arrow.bmp,sst_images/Stop_Arrow.bmp,none,732,None,0,92,92,92,,None,1,,stop,0.25,0.732,1.732,043,Scanner,R,1,2019_Aug_24_1304,SST,3.0.7,23.965804707303437,
go,sst_images/Left_Arrow.bmp,None,1,711,None,0,93,93,93,,1,1,0.71210834098747,go,0.25,0.711,1.7109999999999999,043,Scanner,R,1,2019_Aug_24_1304,SST,3.0.7,23.965804707303437,
go,sst_images/Left_Arrow.bmp,None,1,1015,None,0,94,94,94,,None,0,,go,0.25,1.015,2.0149999999999997,043,Scanner,R,1,2019_Aug_24_1304,SST,3.0.7,23.965804707303437,
go,sst_images/Left_Arrow.bmp,None,1,1047,None,0,95,95,95,,1,1,0.5879563610069454,go,0.25,1.047,2.0469999999999997,043,Scanner,R,1,2019_Aug_24_1304,SST,3.0.7,23.965804707303437,
go,sst_images/Right_Arrow.bmp,None,2,702,None,0,96,96,96,,2,1,0.710540954984026,go,0.25,0.702,1.702,043,Scanner,R,1,2019_Aug_24_1304,SST,3.0.7,23.965804707303437,
stop,sst_images/Left_Arrow.bmp,sst_images/Stop_Arrow.bmp,none,1045,None,0,97,97,97,,None,1,,stop,0.3,1.045,2.045,043,Scanner,R,1,2019_Aug_24_1304,SST,3.0.7,23.965804707303437,
go,sst_images/Left_Arrow.bmp,None,1,828,None,0,98,98,98,,None,0,,go,0.3,0.828,1.8279999999999998,043,Scanner,R,1,2019_Aug_24_1304,SST,3.0.7,23.965804707303437,
stop,sst_images/Left_Arrow.bmp,sst_images/Stop_Arrow.bmp,none,911,None,0,99,99,99,,None,1,,stop,0.35,0.911,1.911,043,Scanner,R,1,2019_Aug_24_1304,SST,3.0.7,23.965804707303437,
go,sst_images/Right_Arrow.bmp,None,2,1066,None,0,100,100,100,,2,1,0.6698037949972786,go,0.35,1.066,2.066,043,Scanner,R,1,2019_Aug_24_1304,SST,3.0.7,23.965804707303437,
go,sst_images/Right_Arrow.bmp,None,2,780,None,0,101,101,101,,2,1,0.4601816300128121,go,0.35,0.78,1.78,043,Scanner,R,1,2019_Aug_24_1304,SST,3.0.7,23.965804707303437,
go,sst_images/Left_Arrow.bmp,None,1,842,None,0,102,102,102,,1,1,0.5446208590001334,go,0.35,0.842,1.842,043,Scanner,R,1,2019_Aug_24_1304,SST,3.0.7,23.965804707303437,
go,sst_images/Right_Arrow.bmp,None,2,713,None,0,103,103,103,,2,1,0.5047713420062792,go,0.35,0.713,1.713,043,Scanner,R,1,2019_Aug_24_1304,SST,3.0.7,23.965804707303437,
go,sst_images/Right_Arrow.bmp,None,2,1053,None,0,104,104,104,,2,1,0.5049106740043499,go,0.35,1.053,2.053,043,Scanner,R,1,2019_Aug_24_1304,SST,3.0.7,23.965804707303437,
go,sst_images/Left_Arrow.bmp,None,1,901,None,0,105,105,105,,1,1,0.5032269580115099,go,0.35,0.901,1.901,043,Scanner,R,1,2019_Aug_24_1304,SST,3.0.7,23.965804707303437,
stop,sst_images/Right_Arrow.bmp,sst_images/Stop_Arrow.bmp,none,1356,None,0,106,106,106,,2,0,0.5208060440199915,stop,0.3,1.356,2.4851939559800083,043,Scanner,R,1,2019_Aug_24_1304,SST,3.0.7,23.965804707303437,
go,sst_images/Left_Arrow.bmp,None,1,864,None,0,107,107,107,,1,1,0.5467273399990518,go,0.3,0.864,1.8639999999999999,043,Scanner,R,1,2019_Aug_24_1304,SST,3.0.7,23.965804707303437,
go,sst_images/Right_Arrow.bmp,None,2,1111,None,0,108,108,108,,2,1,0.545856796001317,go,0.3,1.111,2.1109999999999998,043,Scanner,R,1,2019_Aug_24_1304,SST,3.0.7,23.965804707303437,
go,sst_images/Right_Arrow.bmp,None,2,774,None,0,109,109,109,,2,1,0.5482737440033816,go,0.3,0.774,1.774,043,Scanner,R,1,2019_Aug_24_1304,SST,3.0.7,23.965804707303437,
go,sst_images/Left_Arrow.bmp,None,1,894,None,0,110,110,110,,2,0,0.4582900600216817,go,0.3,0.894,1.8940000000000001,043,Scanner,R,1,2019_Aug_24_1304,SST,3.0.7,23.965804707303437,
go,sst_images/Right_Arrow.bmp,None,2,721,None,0,111,111,111,,2,1,0.6278847429784946,go,0.3,0.721,1.721,043,Scanner,R,1,2019_Aug_24_1304,SST,3.0.7,23.965804707303437,
go,sst_images/Left_Arrow.bmp,None,1,896,None,0,112,112,112,,1,1,0.6693364719976671,go,0.3,0.896,1.896,043,Scanner,R,1,2019_Aug_24_1304,SST,3.0.7,23.965804707303437,
go,sst_images/Right_Arrow.bmp,None,2,768,None,0,113,113,113,,2,1,0.5803769589983858,go,0.3,0.768,1.768,043,Scanner,R,1,2019_Aug_24_1304,SST,3.0.7,23.965804707303437,
go,sst_images/Left_Arrow.bmp,None,1,775,None,0,114,114,114,,1,1,0.5465569760126527,go,0.3,0.775,1.775,043,Scanner,R,1,2019_Aug_24_1304,SST,3.0.7,23.965804707303437,
stop,sst_images/Left_Arrow.bmp,sst_images/Stop_Arrow.bmp,none,780,None,0,115,115,115,,2,0,0.6236629949999042,stop,0.25,0.78,1.756337005000096,043,Scanner,R,1,2019_Aug_24_1304,SST,3.0.7,23.965804707303437,
go,sst_images/Right_Arrow.bmp,None,2,1049,None,0,116,116,116,,2,1,0.6311824439908378,go,0.25,1.049,2.049,043,Scanner,R,1,2019_Aug_24_1304,SST,3.0.7,23.965804707303437,
go,sst_images/Left_Arrow.bmp,None,1,714,None,0,117,117,117,,1,1,0.4638922640006058,go,0.25,0.714,1.714,043,Scanner,R,1,2019_Aug_24_1304,SST,3.0.7,23.965804707303437,
stop,sst_images/Left_Arrow.bmp,sst_images/Stop_Arrow.bmp,none,929,None,0,118,118,118,,None,1,,stop,0.3,0.929,1.929,043,Scanner,R,1,2019_Aug_24_1304,SST,3.0.7,23.965804707303437,
go,sst_images/Right_Arrow.bmp,None,2,780,None,0,119,119,119,,2,1,0.585588865011232,go,0.3,0.78,1.78,043,Scanner,R,1,2019_Aug_24_1304,SST,3.0.7,23.965804707303437,
go,sst_images/Left_Arrow.bmp,None,1,733,None,0,120,120,120,,1,1,0.45958090299973264,go,0.3,0.733,1.733,043,Scanner,R,1,2019_Aug_24_1304,SST,3.0.7,23.965804707303437,
go,sst_images/Right_Arrow.bmp,None,2,713,None,0,121,121,121,,2,1,0.5013037530006841,go,0.3,0.713,1.713,043,Scanner,R,1,2019_Aug_24_1304,SST,3.0.7,23.965804707303437,
stop,sst_images/Right_Arrow.bmp,sst_images/Stop_Arrow.bmp,none,702,None,0,122,122,122,,None,1,,stop,0.35,0.702,1.702,043,Scanner,R,1,2019_Aug_24_1304,SST,3.0.7,23.965804707303437,
go,sst_images/Left_Arrow.bmp,None,1,1464,None,0,123,123,123,,1,1,0.669792711007176,go,0.35,1.464,2.464,043,Scanner,R,1,2019_Aug_24_1304,SST,3.0.7,23.965804707303437,
go,sst_images/Right_Arrow.bmp,None,2,1024,None,0,124,124,124,,2,1,0.6278630929882638,go,0.35,1.024,2.024,043,Scanner,R,1,2019_Aug_24_1304,SST,3.0.7,23.965804707303437,
go,sst_images/Right_Arrow.bmp,None,2,1010,None,0,125,125,125,,2,1,0.46129111299524084,go,0.35,1.01,2.01,043,Scanner,R,1,2019_Aug_24_1304,SST,3.0.7,23.965804707303437,
go,sst_images/Left_Arrow.bmp,None,1,711,None,0,126,126,126,,1,1,0.5456681989890058,go,0.35,0.711,1.7109999999999999,043,Scanner,R,1,2019_Aug_24_1304,SST,3.0.7,23.965804707303437,
stop,sst_images/Left_Arrow.bmp,sst_images/Stop_Arrow.bmp,none,1100,None,0,127,127,127,,2,0,0.5884373009903356,stop,0.3,1.1,2.1615626990096644,043,Scanner,R,1,2019_Aug_24_1304,SST,3.0.7,23.965804707303437,
go,sst_images/Left_Arrow.bmp,None,1,701,None,0,128,128,128,,1,1,0.5857734470046125,go,0.3,0.701,1.701,043,Scanner,R,1,2019_Aug_24_1304,SST,3.0.7,23.965804707303437,
go,sst_images/Left_Arrow.bmp,None,1,740,None,0,129,129,129,,None,0,,go,0.3,0.74,1.74,043,Scanner,R,1,2019_Aug_24_1304,SST,3.0.7,23.965804707303437,
go,sst_images/Right_Arrow.bmp,None,2,734,None,0,130,130,130,,2,1,0.8796509100066032,go,0.3,0.734,1.734,043,Scanner,R,1,2019_Aug_24_1304,SST,3.0.7,23.965804707303437,
stop,sst_images/Right_Arrow.bmp,sst_images/Stop_Arrow.bmp,none,702,None,0,131,131,131,,None,1,,stop,0.35,0.702,1.702,043,Scanner,R,1,2019_Aug_24_1304,SST,3.0.7,23.965804707303437,
go,sst_images/Left_Arrow.bmp,None,1,836,None,0,132,132,132,,None,0,,go,0.35,0.836,1.8359999999999999,043,Scanner,R,1,2019_Aug_24_1304,SST,3.0.7,23.965804707303437,
go,sst_images/Left_Arrow.bmp,None,1,903,None,0,133,133,133,,None,0,,go,0.35,0.903,1.903,043,Scanner,R,1,2019_Aug_24_1304,SST,3.0.7,23.965804707303437,
stop,sst_images/Right_Arrow.bmp,sst_images/Stop_Arrow.bmp,none,802,None,0,134,134,134,,2,0,0.5752091849863064,stop,0.3,0.802,1.8767908150136938,043,Scanner,R,1,2019_Aug_24_1304,SST,3.0.7,23.965804707303437,
go,sst_images/Left_Arrow.bmp,None,1,802,None,0,135,135,135,,1,1,0.5852335609961301,go,0.3,0.802,1.802,043,Scanner,R,1,2019_Aug_24_1304,SST,3.0.7,23.965804707303437,
go,sst_images/Right_Arrow.bmp,None,2,2000,None,0,136,136,136,,2,1,0.5041932739841286,go,0.3,2.0,3.0,043,Scanner,R,1,2019_Aug_24_1304,SST,3.0.7,23.965804707303437,
go,sst_images/Left_Arrow.bmp,None,1,1283,None,0,137,137,137,,1,1,0.5401960010058247,go,0.3,1.283,2.283,043,Scanner,R,1,2019_Aug_24_1304,SST,3.0.7,23.965804707303437,
go,sst_images/Left_Arrow.bmp,None,1,873,None,0,138,138,138,,1,1,0.6297293299867306,go,0.3,0.873,1.873,043,Scanner,R,1,2019_Aug_24_1304,SST,3.0.7,23.965804707303437,
go,sst_images/Right_Arrow.bmp,None,2,737,None,0,139,139,139,,None,0,,go,0.3,0.737,1.737,043,Scanner,R,1,2019_Aug_24_1304,SST,3.0.7,23.965804707303437,
go,sst_images/Right_Arrow.bmp,None,2,1154,None,0,140,140,140,,2,1,0.5859339460148476,go,0.3,1.154,2.154,043,Scanner,R,1,2019_Aug_24_1304,SST,3.0.7,23.965804707303437,
go,sst_images/Left_Arrow.bmp,None,1,777,None,0,141,141,141,,1,1,0.7940370869764592,go,0.3,0.777,1.7770000000000001,043,Scanner,R,1,2019_Aug_24_1304,SST,3.0.7,23.965804707303437,
go,sst_images/Right_Arrow.bmp,None,2,718,None,0,142,142,142,,2,1,0.5457165089901537,go,0.3,0.718,1.718,043,Scanner,R,1,2019_Aug_24_1304,SST,3.0.7,23.965804707303437,
go,sst_images/Left_Arrow.bmp,None,1,883,None,0,143,143,143,,1,1,0.5047077029885259,go,0.3,0.883,1.883,043,Scanner,R,1,2019_Aug_24_1304,SST,3.0.7,23.965804707303437,
stop,sst_images/Left_Arrow.bmp,sst_images/Stop_Arrow.bmp,none,729,None,0,144,144,144,,None,1,,stop,0.35,0.729,1.729,043,Scanner,R,1,2019_Aug_24_1304,SST,3.0.7,23.965804707303437,
go,sst_images/Left_Arrow.bmp,None,1,762,None,0,145,145,145,,1,1,0.5825564510014374,go,0.35,0.762,1.762,043,Scanner,R,1,2019_Aug_24_1304,SST,3.0.7,23.965804707303437,
go,sst_images/Right_Arrow.bmp,None,2,1265,None,0,146,146,146,,2,1,0.5045527500042226,go,0.35,1.265,2.2649999999999997,043,Scanner,R,1,2019_Aug_24_1304,SST,3.0.7,23.965804707303437,
go,sst_images/Left_Arrow.bmp,None,1,841,None,0,147,147,147,,1,1,0.584571956016589,go,0.35,0.841,1.841,043,Scanner,R,1,2019_Aug_24_1304,SST,3.0.7,23.965804707303437,
go,sst_images/Right_Arrow.bmp,None,2,969,None,0,148,148,148,,2,1,0.5036817069922108,go,0.35,0.969,1.9689999999999999,043,Scanner,R,1,2019_Aug_24_1304,SST,3.0.7,23.965804707303437,
stop,sst_images/Left_Arrow.bmp,sst_images/Stop_Arrow.bmp,none,713,None,0,149,149,149,,1,0,0.4779976069985423,stop,0.3,0.713,1.8850023930014579,043,Scanner,R,1,2019_Aug_24_1304,SST,3.0.7,23.965804707303437,
go,sst_images/Left_Arrow.bmp,None,1,843,None,0,150,150,150,,1,1,0.5872212600079365,go,0.3,0.843,1.843,043,Scanner,R,1,2019_Aug_24_1304,SST,3.0.7,23.965804707303437,
go,sst_images/Right_Arrow.bmp,None,2,858,None,0,151,151,151,,1,0,0.7526309079839848,go,0.3,0.858,1.858,043,Scanner,R,1,2019_Aug_24_1304,SST,3.0.7,23.965804707303437,
go,sst_images/Right_Arrow.bmp,None,2,786,None,0,152,152,152,,2,1,0.671950399002526,go,0.3,0.786,1.786,043,Scanner,R,1,2019_Aug_24_1304,SST,3.0.7,23.965804707303437,
go,sst_images/Left_Arrow.bmp,None,1,780,None,0,153,153,153,,1,1,0.5821672609890811,go,0.3,0.78,1.78,043,Scanner,R,1,2019_Aug_24_1304,SST,3.0.7,23.965804707303437,
go,sst_images/Right_Arrow.bmp,None,2,771,None,0,154,154,154,,2,1,0.9184674950083718,go,0.3,0.771,1.771,043,Scanner,R,1,2019_Aug_24_1304,SST,3.0.7,23.965804707303437,
stop,sst_images/Left_Arrow.bmp,sst_images/Stop_Arrow.bmp,none,784,None,0,155,155,155,,1,0,0.6182235009910073,stop,0.25,0.784,1.7657764990089928,043,Scanner,R,1,2019_Aug_24_1304,SST,3.0.7,23.965804707303437,
go,sst_images/Left_Arrow.bmp,None,1,782,None,0,156,156,156,,1,1,0.5034892809926532,go,0.25,0.782,1.782,043,Scanner,R,1,2019_Aug_24_1304,SST,3.0.7,23.965804707303437,
go,sst_images/Right_Arrow.bmp,None,2,802,None,0,157,157,157,,2,1,0.54434679102269,go,0.25,0.802,1.802,043,Scanner,R,1,2019_Aug_24_1304,SST,3.0.7,23.965804707303437,
go,sst_images/Left_Arrow.bmp,None,1,998,None,0,158,158,158,,1,1,0.5038064580003265,go,0.25,0.998,1.998,043,Scanner,R,1,2019_Aug_24_1304,SST,3.0.7,23.965804707303437,
go,sst_images/Right_Arrow.bmp,None,2,905,None,0,159,159,159,,None,0,,go,0.25,0.905,1.905,043,Scanner,R,1,2019_Aug_24_1304,SST,3.0.7,23.965804707303437,
go,sst_images/Left_Arrow.bmp,None,1,757,None,0,160,160,160,,1,1,0.4209762749960646,go,0.25,0.757,1.7570000000000001,043,Scanner,R,1,2019_Aug_24_1304,SST,3.0.7,23.965804707303437,
go,sst_images/Left_Arrow.bmp,None,1,1428,None,0,161,161,161,,2,0,0.662605427991366,go,0.25,1.428,2.428,043,Scanner,R,1,2019_Aug_24_1304,SST,3.0.7,23.965804707303437,
go,sst_images/Right_Arrow.bmp,None,2,975,None,0,162,162,162,,None,0,,go,0.25,0.975,1.975,043,Scanner,R,1,2019_Aug_24_1304,SST,3.0.7,23.965804707303437,
go,sst_images/Left_Arrow.bmp,None,1,891,None,0,163,163,163,,1,1,0.42151892301626503,go,0.25,0.891,1.891,043,Scanner,R,1,2019_Aug_24_1304,SST,3.0.7,23.965804707303437,
go,sst_images/Right_Arrow.bmp,None,2,738,None,0,164,164,164,,2,1,0.8773193559900392,go,0.25,0.738,1.738,043,Scanner,R,1,2019_Aug_24_1304,SST,3.0.7,23.965804707303437,
go,sst_images/Right_Arrow.bmp,None,2,911,None,0,165,165,165,,2,1,0.6706152380211279,go,0.25,0.911,1.911,043,Scanner,R,1,2019_Aug_24_1304,SST,3.0.7,23.965804707303437,
go,sst_images/Right_Arrow.bmp,None,2,760,None,0,166,166,166,,2,1,0.7526718619919848,go,0.25,0.76,1.76,043,Scanner,R,1,2019_Aug_24_1304,SST,3.0.7,23.965804707303437,
stop,sst_images/Right_Arrow.bmp,sst_images/Stop_Arrow.bmp,none,817,None,0,167,167,167,,2,0,0.48585703401477076,stop,0.2,0.817,1.8811429659852292,043,Scanner,R,1,2019_Aug_24_1304,SST,3.0.7,23.965804707303437,
go,sst_images/Left_Arrow.bmp,None,1,802,None,0,168,168,168,,None,0,,go,0.2,0.802,1.802,043,Scanner,R,1,2019_Aug_24_1304,SST,3.0.7,23.965804707303437,
go,sst_images/Right_Arrow.bmp,None,2,954,None,0,169,169,169,,None,0,,go,0.2,0.954,1.954,043,Scanner,R,1,2019_Aug_24_1304,SST,3.0.7,23.965804707303437,
go,sst_images/Right_Arrow.bmp,None,2,1334,None,0,170,170,170,,None,0,,go,0.2,1.334,2.334,043,Scanner,R,1,2019_Aug_24_1304,SST,3.0.7,23.965804707303437,
go,sst_images/Left_Arrow.bmp,None,1,1171,None,0,171,171,171,,None,0,,go,0.2,1.171,2.1710000000000003,043,Scanner,R,1,2019_Aug_24_1304,SST,3.0.7,23.965804707303437,
go,sst_images/Right_Arrow.bmp,None,2,972,None,0,172,172,172,,None,0,,go,0.2,0.972,1.972,043,Scanner,R,1,2019_Aug_24_1304,SST,3.0.7,23.965804707303437,
stop,sst_images/Left_Arrow.bmp,sst_images/Stop_Arrow.bmp,none,711,None,0,173,173,173,,None,1,,stop,0.25,0.711,1.7109999999999999,043,Scanner,R,1,2019_Aug_24_1304,SST,3.0.7,23.965804707303437,
go,sst_images/Right_Arrow.bmp,None,2,1440,None,0,174,174,174,,2,1,0.5450312019966077,go,0.25,1.44,2.44,043,Scanner,R,1,2019_Aug_24_1304,SST,3.0.7,23.965804707303437,
go,sst_images/Right_Arrow.bmp,None,2,795,None,0,175,175,175,,2,1,0.6667393590032589,go,0.25,0.795,1.795,043,Scanner,R,1,2019_Aug_24_1304,SST,3.0.7,23.965804707303437,
go,sst_images/Left_Arrow.bmp,None,1,845,None,0,176,176,176,,1,1,0.5859024540113751,go,0.25,0.845,1.845,043,Scanner,R,1,2019_Aug_24_1304,SST,3.0.7,23.965804707303437,
go,sst_images/Right_Arrow.bmp,None,2,729,None,0,177,177,177,,2,1,0.5846739220141899,go,0.25,0.729,1.729,043,Scanner,R,1,2019_Aug_24_1304,SST,3.0.7,23.965804707303437,
go,sst_images/Left_Arrow.bmp,None,1,948,None,0,178,178,178,,1,1,0.5899902780074626,go,0.25,0.948,1.948,043,Scanner,R,1,2019_Aug_24_1304,SST,3.0.7,23.965804707303437,
go,sst_images/Right_Arrow.bmp,None,2,834,4232.0,0,179,179,179,,2,1,0.45946062498842366,go,0.25,0.834,1.834,043,Scanner,R,1,2019_Aug_24_1304,SST,3.0.7,23.965804707303437,
