trial_type,arrow_1,arrow_2,corrAns,jitter,run_end_fixation,trials.thisRepN,trials.thisTrialN,trials.thisN,trials.thisIndex,randomized TrialOrder,key_response.keys,key_response.corr,key_response.rt,trial_t.routineEndVal,ss_delay,iti_duration,SOA,participant,prac_or_scan,handedness,run,date,expName,psychopyVersion,frameRate,
go,sst_images/Left_Arrow.bmp,None,1,732,None,0,0,0,0,1,1,1,0.835480308989645,go,0.05,0.732,1.732,044,Scanner,R,1,2019_Sep_07_1705,SST,3.0.7,60.02484260054249,
go,sst_images/Right_Arrow.bmp,None,2,709,None,0,1,1,1,,2,1,0.3691006509907311,go,0.05,0.709,1.709,044,Scanner,R,1,2019_Sep_07_1705,SST,3.0.7,60.02484260054249,
stop,sst_images/Right_Arrow.bmp,sst_images/Stop_Arrow.bmp,none,832,None,0,2,2,2,,None,1,,stop,0.1,0.832,1.8319999999999999,044,Scanner,R,1,2019_Sep_07_1705,SST,3.0.7,60.02484260054249,
go,sst_images/Right_Arrow.bmp,None,2,812,None,0,3,3,3,,2,1,0.30439995499909855,go,0.1,0.812,1.812,044,Scanner,R,1,2019_Sep_07_1705,SST,3.0.7,60.02484260054249,
go,sst_images/Left_Arrow.bmp,None,1,916,None,0,4,4,4,,1,1,0.35450762600521557,go,0.1,0.916,1.916,044,Scanner,R,1,2019_Sep_07_1705,SST,3.0.7,60.02484260054249,
stop,sst_images/Left_Arrow.bmp,sst_images/Stop_Arrow.bmp,none,817,None,0,5,5,5,,None,1,,stop,0.15000000000000002,0.817,1.817,044,Scanner,R,1,2019_Sep_07_1705,SST,3.0.7,60.02484260054249,
go,sst_images/Left_Arrow.bmp,None,1,1153,None,0,6,6,6,,1,1,0.3876823219907237,go,0.15000000000000002,1.153,2.153,044,Scanner,R,1,2019_Sep_07_1705,SST,3.0.7,60.02484260054249,
go,sst_images/Right_Arrow.bmp,None,2,1097,None,0,7,7,7,,2,1,0.37196629999380093,go,0.15000000000000002,1.097,2.097,044,Scanner,R,1,2019_Sep_07_1705,SST,3.0.7,60.02484260054249,
go,sst_images/Left_Arrow.bmp,None,1,771,None,0,8,8,8,,1,1,0.37227607901149895,go,0.15000000000000002,0.771,1.771,044,Scanner,R,1,2019_Sep_07_1705,SST,3.0.7,60.02484260054249,
go,sst_images/Right_Arrow.bmp,None,2,768,None,0,9,9,9,,2,1,0.4064166009920882,go,0.15000000000000002,0.768,1.768,044,Scanner,R,1,2019_Sep_07_1705,SST,3.0.7,60.02484260054249,
stop,sst_images/Left_Arrow.bmp,sst_images/Stop_Arrow.bmp,none,709,None,0,10,10,10,,1,0,0.3570675359951565,stop,0.10000000000000002,0.709,1.8019324640048435,044,Scanner,R,1,2019_Sep_07_1705,SST,3.0.7,60.02484260054249,
go,sst_images/Right_Arrow.bmp,None,2,861,None,0,11,11,11,,2,1,0.3875843790010549,go,0.10000000000000002,0.861,1.861,044,Scanner,R,1,2019_Sep_07_1705,SST,3.0.7,60.02484260054249,
go,sst_images/Left_Arrow.bmp,None,1,834,None,0,12,12,12,,1,1,0.405467635995592,go,0.10000000000000002,0.834,1.834,044,Scanner,R,1,2019_Sep_07_1705,SST,3.0.7,60.02484260054249,
go,sst_images/Right_Arrow.bmp,None,2,830,None,0,13,13,13,,2,1,0.40559636399848387,go,0.10000000000000002,0.83,1.83,044,Scanner,R,1,2019_Sep_07_1705,SST,3.0.7,60.02484260054249,
go,sst_images/Left_Arrow.bmp,None,1,1202,None,0,14,14,14,,1,1,0.38779008699930273,go,0.10000000000000002,1.202,2.202,044,Scanner,R,1,2019_Sep_07_1705,SST,3.0.7,60.02484260054249,
stop,sst_images/Right_Arrow.bmp,sst_images/Stop_Arrow.bmp,none,929,None,0,15,15,15,,None,1,,stop,0.15000000000000002,0.929,1.929,044,Scanner,R,1,2019_Sep_07_1705,SST,3.0.7,60.02484260054249,
go,sst_images/Left_Arrow.bmp,None,1,705,None,0,16,16,16,,1,1,0.3361694089981029,go,0.15000000000000002,0.705,1.705,044,Scanner,R,1,2019_Sep_07_1705,SST,3.0.7,60.02484260054249,
go,sst_images/Left_Arrow.bmp,None,1,953,None,0,17,17,17,,1,1,0.38686274400970433,go,0.15000000000000002,0.953,1.9529999999999998,044,Scanner,R,1,2019_Sep_07_1705,SST,3.0.7,60.02484260054249,
go,sst_images/Right_Arrow.bmp,None,2,795,None,0,18,18,18,,2,1,0.3702398929890478,go,0.15000000000000002,0.795,1.795,044,Scanner,R,1,2019_Sep_07_1705,SST,3.0.7,60.02484260054249,
go,sst_images/Left_Arrow.bmp,None,1,910,None,0,19,19,19,,1,1,0.33601263198943343,go,0.15000000000000002,0.91,1.9100000000000001,044,Scanner,R,1,2019_Sep_07_1705,SST,3.0.7,60.02484260054249,
go,sst_images/Left_Arrow.bmp,None,1,975,None,0,20,20,20,,1,1,0.4552286710095359,go,0.15000000000000002,0.975,1.975,044,Scanner,R,1,2019_Sep_07_1705,SST,3.0.7,60.02484260054249,
stop,sst_images/Right_Arrow.bmp,sst_images/Stop_Arrow.bmp,none,708,None,0,21,21,21,,None,1,,stop,0.2,0.708,1.708,044,Scanner,R,1,2019_Sep_07_1705,SST,3.0.7,60.02484260054249,
go,sst_images/Right_Arrow.bmp,None,2,838,None,0,22,22,22,,2,1,0.4538911179988645,go,0.2,0.838,1.838,044,Scanner,R,1,2019_Sep_07_1705,SST,3.0.7,60.02484260054249,
go,sst_images/Left_Arrow.bmp,None,1,794,None,0,23,23,23,,1,1,0.3851580190093955,go,0.2,0.794,1.794,044,Scanner,R,1,2019_Sep_07_1705,SST,3.0.7,60.02484260054249,
go,sst_images/Right_Arrow.bmp,None,2,835,None,0,24,24,24,,2,1,0.40418954800406937,go,0.2,0.835,1.835,044,Scanner,R,1,2019_Sep_07_1705,SST,3.0.7,60.02484260054249,
go,sst_images/Left_Arrow.bmp,None,1,726,None,0,25,25,25,,1,1,0.3718975749943638,go,0.2,0.726,1.726,044,Scanner,R,1,2019_Sep_07_1705,SST,3.0.7,60.02484260054249,
go,sst_images/Right_Arrow.bmp,None,2,1514,None,0,26,26,26,,2,1,0.4212201129994355,go,0.2,1.514,2.5140000000000002,044,Scanner,R,1,2019_Sep_07_1705,SST,3.0.7,60.02484260054249,
go,sst_images/Right_Arrow.bmp,None,2,1028,None,0,27,27,27,,2,1,0.5048681890039006,go,0.2,1.028,2.028,044,Scanner,R,1,2019_Sep_07_1705,SST,3.0.7,60.02484260054249,
go,sst_images/Left_Arrow.bmp,None,1,849,None,0,28,28,28,,1,1,0.5878083100105869,go,0.2,0.849,1.849,044,Scanner,R,1,2019_Sep_07_1705,SST,3.0.7,60.02484260054249,
go,sst_images/Right_Arrow.bmp,None,2,807,None,0,29,29,29,,2,1,0.3854573240096215,go,0.2,0.807,1.807,044,Scanner,R,1,2019_Sep_07_1705,SST,3.0.7,60.02484260054249,
stop,sst_images/Left_Arrow.bmp,sst_images/Stop_Arrow.bmp,none,870,None,0,30,30,30,,1,0,0.3881021880079061,stop,0.15000000000000002,0.87,1.981897811992094,044,Scanner,R,1,2019_Sep_07_1705,SST,3.0.7,60.02484260054249,
go,sst_images/Right_Arrow.bmp,None,2,826,None,0,31,31,31,,2,1,0.43588694400386885,go,0.15000000000000002,0.826,1.826,044,Scanner,R,1,2019_Sep_07_1705,SST,3.0.7,60.02484260054249,
go,sst_images/Left_Arrow.bmp,None,1,737,None,0,32,32,32,,2,0,0.4706924719939707,go,0.15000000000000002,0.737,1.737,044,Scanner,R,1,2019_Sep_07_1705,SST,3.0.7,60.02484260054249,
go,sst_images/Right_Arrow.bmp,None,2,853,None,0,33,33,33,,2,1,0.4023005750059383,go,0.15000000000000002,0.853,1.853,044,Scanner,R,1,2019_Sep_07_1705,SST,3.0.7,60.02484260054249,
go,sst_images/Left_Arrow.bmp,None,1,740,None,0,34,34,34,,1,1,0.41996424400713295,go,0.15000000000000002,0.74,1.74,044,Scanner,R,1,2019_Sep_07_1705,SST,3.0.7,60.02484260054249,
go,sst_images/Left_Arrow.bmp,None,1,835,None,0,35,35,35,,1,1,0.4176251150056487,go,0.15000000000000002,0.835,1.835,044,Scanner,R,1,2019_Sep_07_1705,SST,3.0.7,60.02484260054249,
go,sst_images/Right_Arrow.bmp,None,2,848,None,0,36,36,36,,2,1,0.38709057100641076,go,0.15000000000000002,0.848,1.8479999999999999,044,Scanner,R,1,2019_Sep_07_1705,SST,3.0.7,60.02484260054249,
go,sst_images/Right_Arrow.bmp,None,2,983,None,0,37,37,37,,2,1,0.42103351700643543,go,0.15000000000000002,0.983,1.983,044,Scanner,R,1,2019_Sep_07_1705,SST,3.0.7,60.02484260054249,
go,sst_images/Left_Arrow.bmp,None,1,725,None,0,38,38,38,,1,1,0.3536043429921847,go,0.15000000000000002,0.725,1.725,044,Scanner,R,1,2019_Sep_07_1705,SST,3.0.7,60.02484260054249,
go,sst_images/Left_Arrow.bmp,None,1,717,None,0,39,39,39,,1,1,0.3900358770042658,go,0.15000000000000002,0.717,1.717,044,Scanner,R,1,2019_Sep_07_1705,SST,3.0.7,60.02484260054249,
go,sst_images/Right_Arrow.bmp,None,2,701,None,0,40,40,40,,2,1,0.32017042000370566,go,0.15000000000000002,0.701,1.701,044,Scanner,R,1,2019_Sep_07_1705,SST,3.0.7,60.02484260054249,
stop,sst_images/Right_Arrow.bmp,sst_images/Stop_Arrow.bmp,none,1646,None,0,41,41,41,,2,0,0.38826790799794253,stop,0.10000000000000002,1.646,2.707732092002057,044,Scanner,R,1,2019_Sep_07_1705,SST,3.0.7,60.02484260054249,
go,sst_images/Left_Arrow.bmp,None,1,736,None,0,42,42,42,,1,1,0.5196369729965227,go,0.10000000000000002,0.736,1.736,044,Scanner,R,1,2019_Sep_07_1705,SST,3.0.7,60.02484260054249,
go,sst_images/Left_Arrow.bmp,None,1,855,None,0,43,43,43,,1,1,0.6045355610112892,go,0.10000000000000002,0.855,1.855,044,Scanner,R,1,2019_Sep_07_1705,SST,3.0.7,60.02484260054249,
go,sst_images/Right_Arrow.bmp,None,2,903,None,0,44,44,44,,1,0,0.40278377999493387,go,0.10000000000000002,0.903,1.903,044,Scanner,R,1,2019_Sep_07_1705,SST,3.0.7,60.02484260054249,
go,sst_images/Right_Arrow.bmp,None,2,802,None,0,45,45,45,,2,1,0.38779724200139754,go,0.10000000000000002,0.802,1.802,044,Scanner,R,1,2019_Sep_07_1705,SST,3.0.7,60.02484260054249,
stop,sst_images/Right_Arrow.bmp,sst_images/Stop_Arrow.bmp,none,768,None,0,46,46,46,,None,1,,stop,0.15000000000000002,0.768,1.768,044,Scanner,R,1,2019_Sep_07_1705,SST,3.0.7,60.02484260054249,
go,sst_images/Right_Arrow.bmp,None,2,779,None,0,47,47,47,,2,1,0.493006657998194,go,0.15000000000000002,0.779,1.779,044,Scanner,R,1,2019_Sep_07_1705,SST,3.0.7,60.02484260054249,
go,sst_images/Left_Arrow.bmp,None,1,703,None,0,48,48,48,,1,1,0.5043871329980902,go,0.15000000000000002,0.703,1.7029999999999998,044,Scanner,R,1,2019_Sep_07_1705,SST,3.0.7,60.02484260054249,
go,sst_images/Left_Arrow.bmp,None,1,941,None,0,49,49,49,,1,1,0.5200169680028921,go,0.15000000000000002,0.941,1.9409999999999998,044,Scanner,R,1,2019_Sep_07_1705,SST,3.0.7,60.02484260054249,
go,sst_images/Left_Arrow.bmp,None,1,779,None,0,50,50,50,,1,1,0.42193902100552805,go,0.15000000000000002,0.779,1.779,044,Scanner,R,1,2019_Sep_07_1705,SST,3.0.7,60.02484260054249,
stop,sst_images/Left_Arrow.bmp,sst_images/Stop_Arrow.bmp,none,902,None,0,51,51,51,,None,1,,stop,0.2,0.902,1.902,044,Scanner,R,1,2019_Sep_07_1705,SST,3.0.7,60.02484260054249,
go,sst_images/Right_Arrow.bmp,None,2,948,None,0,52,52,52,,2,1,0.469613285997184,go,0.2,0.948,1.948,044,Scanner,R,1,2019_Sep_07_1705,SST,3.0.7,60.02484260054249,
go,sst_images/Right_Arrow.bmp,None,2,706,None,0,53,53,53,,2,1,0.4878760220017284,go,0.2,0.706,1.706,044,Scanner,R,1,2019_Sep_07_1705,SST,3.0.7,60.02484260054249,
stop,sst_images/Right_Arrow.bmp,sst_images/Stop_Arrow.bmp,none,730,None,0,54,54,54,,None,1,,stop,0.25,0.73,1.73,044,Scanner,R,1,2019_Sep_07_1705,SST,3.0.7,60.02484260054249,
go,sst_images/Left_Arrow.bmp,None,1,883,None,0,55,55,55,,1,1,0.5719974950043252,go,0.25,0.883,1.883,044,Scanner,R,1,2019_Sep_07_1705,SST,3.0.7,60.02484260054249,
go,sst_images/Left_Arrow.bmp,None,1,951,None,0,56,56,56,,1,1,0.5841906650020974,go,0.25,0.951,1.951,044,Scanner,R,1,2019_Sep_07_1705,SST,3.0.7,60.02484260054249,
go,sst_images/Left_Arrow.bmp,None,1,749,None,0,57,57,57,,1,1,0.4373376949952217,go,0.25,0.749,1.749,044,Scanner,R,1,2019_Sep_07_1705,SST,3.0.7,60.02484260054249,
go,sst_images/Right_Arrow.bmp,None,2,722,None,0,58,58,58,,2,1,0.42169758799718693,go,0.25,0.722,1.722,044,Scanner,R,1,2019_Sep_07_1705,SST,3.0.7,60.02484260054249,
stop,sst_images/Left_Arrow.bmp,sst_images/Stop_Arrow.bmp,none,706,None,0,59,59,59,,1,0,0.4373454250016948,stop,0.2,0.706,1.8186545749983052,044,Scanner,R,1,2019_Sep_07_1705,SST,3.0.7,60.02484260054249,
go,sst_images/Left_Arrow.bmp,None,1,711,None,0,60,60,60,,1,1,0.47025664200191386,go,0.2,0.711,1.7109999999999999,044,Scanner,R,1,2019_Sep_07_1705,SST,3.0.7,60.02484260054249,
go,sst_images/Left_Arrow.bmp,None,1,1227,None,0,61,61,61,,1,1,0.40356443799100816,go,0.2,1.227,2.2270000000000003,044,Scanner,R,1,2019_Sep_07_1705,SST,3.0.7,60.02484260054249,
go,sst_images/Right_Arrow.bmp,None,2,907,None,0,62,62,62,,2,1,0.3701166859973455,go,0.2,0.907,1.907,044,Scanner,R,1,2019_Sep_07_1705,SST,3.0.7,60.02484260054249,
go,sst_images/Right_Arrow.bmp,None,2,747,None,0,63,63,63,,2,1,0.37004039000021294,go,0.2,0.747,1.7469999999999999,044,Scanner,R,1,2019_Sep_07_1705,SST,3.0.7,60.02484260054249,
stop,sst_images/Right_Arrow.bmp,sst_images/Stop_Arrow.bmp,none,1533,None,0,64,64,64,,2,0,0.3687024460086832,stop,0.15000000000000002,1.533,2.6642975539913167,044,Scanner,R,1,2019_Sep_07_1705,SST,3.0.7,60.02484260054249,
go,sst_images/Left_Arrow.bmp,None,1,1026,None,0,65,65,65,,1,1,0.4185805050074123,go,0.15000000000000002,1.026,2.026,044,Scanner,R,1,2019_Sep_07_1705,SST,3.0.7,60.02484260054249,
go,sst_images/Right_Arrow.bmp,None,2,1533,None,0,66,66,66,,2,1,0.38938654100638814,go,0.15000000000000002,1.533,2.533,044,Scanner,R,1,2019_Sep_07_1705,SST,3.0.7,60.02484260054249,
go,sst_images/Left_Arrow.bmp,None,1,844,None,0,67,67,67,,1,1,0.4200540460005868,go,0.15000000000000002,0.844,1.8439999999999999,044,Scanner,R,1,2019_Sep_07_1705,SST,3.0.7,60.02484260054249,
go,sst_images/Right_Arrow.bmp,None,2,904,None,0,68,68,68,,2,1,0.4210445049975533,go,0.15000000000000002,0.904,1.904,044,Scanner,R,1,2019_Sep_07_1705,SST,3.0.7,60.02484260054249,
go,sst_images/Right_Arrow.bmp,None,2,823,None,0,69,69,69,,2,1,0.38635579399124254,go,0.15000000000000002,0.823,1.823,044,Scanner,R,1,2019_Sep_07_1705,SST,3.0.7,60.02484260054249,
go,sst_images/Left_Arrow.bmp,None,1,754,None,0,70,70,70,,1,1,0.4358150909974938,go,0.15000000000000002,0.754,1.754,044,Scanner,R,1,2019_Sep_07_1705,SST,3.0.7,60.02484260054249,
stop,sst_images/Right_Arrow.bmp,sst_images/Stop_Arrow.bmp,none,1116,None,0,71,71,71,,2,0,0.3796908619988244,stop,0.10000000000000002,1.116,2.1863091380011754,044,Scanner,R,1,2019_Sep_07_1705,SST,3.0.7,60.02484260054249,
go,sst_images/Right_Arrow.bmp,None,2,864,None,0,72,72,72,,2,1,0.3690970479947282,go,0.10000000000000002,0.864,1.8639999999999999,044,Scanner,R,1,2019_Sep_07_1705,SST,3.0.7,60.02484260054249,
go,sst_images/Left_Arrow.bmp,None,1,1093,None,0,73,73,73,,1,1,0.5031225040002028,go,0.10000000000000002,1.093,2.093,044,Scanner,R,1,2019_Sep_07_1705,SST,3.0.7,60.02484260054249,
go,sst_images/Right_Arrow.bmp,None,2,1344,None,0,74,74,74,,2,1,0.34614353500364814,go,0.10000000000000002,1.344,2.3440000000000003,044,Scanner,R,1,2019_Sep_07_1705,SST,3.0.7,60.02484260054249,
go,sst_images/Left_Arrow.bmp,None,1,957,None,0,75,75,75,,1,1,0.438162205988192,go,0.10000000000000002,0.957,1.9569999999999999,044,Scanner,R,1,2019_Sep_07_1705,SST,3.0.7,60.02484260054249,
go,sst_images/Right_Arrow.bmp,None,2,968,None,0,76,76,76,,2,1,0.4719011660054093,go,0.10000000000000002,0.968,1.968,044,Scanner,R,1,2019_Sep_07_1705,SST,3.0.7,60.02484260054249,
go,sst_images/Right_Arrow.bmp,None,2,781,None,0,77,77,77,,2,1,0.5030660920019727,go,0.10000000000000002,0.781,1.7810000000000001,044,Scanner,R,1,2019_Sep_07_1705,SST,3.0.7,60.02484260054249,
go,sst_images/Left_Arrow.bmp,None,1,714,None,0,78,78,78,,1,1,0.45361263198719826,go,0.10000000000000002,0.714,1.714,044,Scanner,R,1,2019_Sep_07_1705,SST,3.0.7,60.02484260054249,
go,sst_images/Left_Arrow.bmp,None,1,779,None,0,79,79,79,,1,1,0.4880914329987718,go,0.10000000000000002,0.779,1.779,044,Scanner,R,1,2019_Sep_07_1705,SST,3.0.7,60.02484260054249,
go,sst_images/Right_Arrow.bmp,None,2,961,None,0,80,80,80,,2,1,0.3714585179986898,go,0.10000000000000002,0.961,1.9609999999999999,044,Scanner,R,1,2019_Sep_07_1705,SST,3.0.7,60.02484260054249,
go,sst_images/Right_Arrow.bmp,None,2,799,None,0,81,81,81,,2,1,0.44707078899955377,go,0.10000000000000002,0.799,1.799,044,Scanner,R,1,2019_Sep_07_1705,SST,3.0.7,60.02484260054249,
go,sst_images/Right_Arrow.bmp,None,2,1308,None,0,82,82,82,,2,1,0.42060073198808823,go,0.10000000000000002,1.308,2.308,044,Scanner,R,1,2019_Sep_07_1705,SST,3.0.7,60.02484260054249,
stop,sst_images/Left_Arrow.bmp,sst_images/Stop_Arrow.bmp,none,796,None,0,83,83,83,,None,1,,stop,0.15000000000000002,0.796,1.796,044,Scanner,R,1,2019_Sep_07_1705,SST,3.0.7,60.02484260054249,
go,sst_images/Left_Arrow.bmp,None,1,718,None,0,84,84,84,,1,1,0.4875828540098155,go,0.15000000000000002,0.718,1.718,044,Scanner,R,1,2019_Sep_07_1705,SST,3.0.7,60.02484260054249,
go,sst_images/Left_Arrow.bmp,None,1,1258,None,0,85,85,85,,1,1,0.35299955400114413,go,0.15000000000000002,1.258,2.258,044,Scanner,R,1,2019_Sep_07_1705,SST,3.0.7,60.02484260054249,
go,sst_images/Right_Arrow.bmp,None,2,1026,None,0,86,86,86,,2,1,0.3532151870022062,go,0.15000000000000002,1.026,2.026,044,Scanner,R,1,2019_Sep_07_1705,SST,3.0.7,60.02484260054249,
go,sst_images/Left_Arrow.bmp,None,1,1531,None,0,87,87,87,,1,1,0.35425650200340897,go,0.15000000000000002,1.531,2.5309999999999997,044,Scanner,R,1,2019_Sep_07_1705,SST,3.0.7,60.02484260054249,
go,sst_images/Right_Arrow.bmp,None,2,874,None,0,88,88,88,,2,1,0.3611588890053099,go,0.15000000000000002,0.874,1.874,044,Scanner,R,1,2019_Sep_07_1705,SST,3.0.7,60.02484260054249,
go,sst_images/Left_Arrow.bmp,None,1,923,None,0,89,89,89,,1,1,0.45459064800525084,go,0.15000000000000002,0.923,1.923,044,Scanner,R,1,2019_Sep_07_1705,SST,3.0.7,60.02484260054249,
go,sst_images/Right_Arrow.bmp,None,2,1602,None,0,90,90,90,,2,1,0.3876813020033296,go,0.15000000000000002,1.602,2.6020000000000003,044,Scanner,R,1,2019_Sep_07_1705,SST,3.0.7,60.02484260054249,
go,sst_images/Left_Arrow.bmp,None,1,827,None,0,91,91,91,,1,1,0.34753217099932954,go,0.15000000000000002,0.827,1.827,044,Scanner,R,1,2019_Sep_07_1705,SST,3.0.7,60.02484260054249,
stop,sst_images/Right_Arrow.bmp,sst_images/Stop_Arrow.bmp,none,732,None,0,92,92,92,,2,0,0.36274474300444126,stop,0.10000000000000002,0.732,1.819255256995559,044,Scanner,R,1,2019_Sep_07_1705,SST,3.0.7,60.02484260054249,
go,sst_images/Left_Arrow.bmp,None,1,728,None,0,93,93,93,,1,1,0.43407215300248936,go,0.10000000000000002,0.728,1.728,044,Scanner,R,1,2019_Sep_07_1705,SST,3.0.7,60.02484260054249,
go,sst_images/Left_Arrow.bmp,None,1,730,None,0,94,94,94,,1,1,0.4430337679950753,go,0.10000000000000002,0.73,1.73,044,Scanner,R,1,2019_Sep_07_1705,SST,3.0.7,60.02484260054249,
go,sst_images/Right_Arrow.bmp,None,2,802,None,0,95,95,95,,2,1,0.4450178609986324,go,0.10000000000000002,0.802,1.802,044,Scanner,R,1,2019_Sep_07_1705,SST,3.0.7,60.02484260054249,
go,sst_images/Left_Arrow.bmp,None,1,721,None,0,96,96,96,,1,1,0.3742607029998908,go,0.10000000000000002,0.721,1.721,044,Scanner,R,1,2019_Sep_07_1705,SST,3.0.7,60.02484260054249,
stop,sst_images/Right_Arrow.bmp,sst_images/Stop_Arrow.bmp,none,730,None,0,97,97,97,,None,1,,stop,0.15000000000000002,0.73,1.7300000000000002,044,Scanner,R,1,2019_Sep_07_1705,SST,3.0.7,60.02484260054249,
go,sst_images/Right_Arrow.bmp,None,2,1026,None,0,98,98,98,,2,1,0.42500601398933213,go,0.15000000000000002,1.026,2.026,044,Scanner,R,1,2019_Sep_07_1705,SST,3.0.7,60.02484260054249,
go,sst_images/Right_Arrow.bmp,None,2,790,None,0,99,99,99,,2,1,0.3947068940033205,go,0.15000000000000002,0.79,1.79,044,Scanner,R,1,2019_Sep_07_1705,SST,3.0.7,60.02484260054249,
go,sst_images/Left_Arrow.bmp,None,1,1246,None,0,100,100,100,,1,1,0.3949576360028004,go,0.15000000000000002,1.246,2.246,044,Scanner,R,1,2019_Sep_07_1705,SST,3.0.7,60.02484260054249,
stop,sst_images/Left_Arrow.bmp,sst_images/Stop_Arrow.bmp,none,1183,None,0,101,101,101,,None,1,,stop,0.2,1.183,2.183,044,Scanner,R,1,2019_Sep_07_1705,SST,3.0.7,60.02484260054249,
go,sst_images/Right_Arrow.bmp,None,2,709,None,0,102,102,102,,2,1,0.5107221770012984,go,0.2,0.709,1.709,044,Scanner,R,1,2019_Sep_07_1705,SST,3.0.7,60.02484260054249,
go,sst_images/Right_Arrow.bmp,None,2,731,None,0,103,103,103,,2,1,0.41084975299600046,go,0.2,0.731,1.7309999999999999,044,Scanner,R,1,2019_Sep_07_1705,SST,3.0.7,60.02484260054249,
go,sst_images/Left_Arrow.bmp,None,1,726,None,0,104,104,104,,1,1,0.4762533830071334,go,0.2,0.726,1.726,044,Scanner,R,1,2019_Sep_07_1705,SST,3.0.7,60.02484260054249,
go,sst_images/Left_Arrow.bmp,None,1,842,None,0,105,105,105,,1,1,0.5213091600016924,go,0.2,0.842,1.842,044,Scanner,R,1,2019_Sep_07_1705,SST,3.0.7,60.02484260054249,
go,sst_images/Right_Arrow.bmp,None,2,706,None,0,106,106,106,,2,1,0.439086332989973,go,0.2,0.706,1.706,044,Scanner,R,1,2019_Sep_07_1705,SST,3.0.7,60.02484260054249,
go,sst_images/Right_Arrow.bmp,None,2,718,None,0,107,107,107,,2,1,0.44129227100347634,go,0.2,0.718,1.718,044,Scanner,R,1,2019_Sep_07_1705,SST,3.0.7,60.02484260054249,
stop,sst_images/Left_Arrow.bmp,sst_images/Stop_Arrow.bmp,none,816,None,0,108,108,108,,1,0,0.426473993997206,stop,0.15000000000000002,0.816,1.8895260060027939,044,Scanner,R,1,2019_Sep_07_1705,SST,3.0.7,60.02484260054249,
go,sst_images/Left_Arrow.bmp,None,1,834,None,0,109,109,109,,1,1,0.37688351998804137,go,0.15000000000000002,0.834,1.834,044,Scanner,R,1,2019_Sep_07_1705,SST,3.0.7,60.02484260054249,
go,sst_images/Right_Arrow.bmp,None,2,898,None,0,110,110,110,,2,1,0.3866202240023995,go,0.15000000000000002,0.898,1.8980000000000001,044,Scanner,R,1,2019_Sep_07_1705,SST,3.0.7,60.02484260054249,
go,sst_images/Left_Arrow.bmp,None,1,1726,None,0,111,111,111,,1,1,0.3759193470032187,go,0.15000000000000002,1.726,2.726,044,Scanner,R,1,2019_Sep_07_1705,SST,3.0.7,60.02484260054249,
go,sst_images/Right_Arrow.bmp,None,2,929,None,0,112,112,112,,2,1,0.3395881169999484,go,0.15000000000000002,0.929,1.929,044,Scanner,R,1,2019_Sep_07_1705,SST,3.0.7,60.02484260054249,
go,sst_images/Left_Arrow.bmp,None,1,1298,None,0,113,113,113,,1,1,0.3582472830021288,go,0.15000000000000002,1.298,2.298,044,Scanner,R,1,2019_Sep_07_1705,SST,3.0.7,60.02484260054249,
go,sst_images/Right_Arrow.bmp,None,2,1043,None,0,114,114,114,,2,1,0.39270436599326786,go,0.15000000000000002,1.043,2.043,044,Scanner,R,1,2019_Sep_07_1705,SST,3.0.7,60.02484260054249,
go,sst_images/Left_Arrow.bmp,None,1,790,None,0,115,115,115,,1,1,0.3718672610120848,go,0.15000000000000002,0.79,1.79,044,Scanner,R,1,2019_Sep_07_1705,SST,3.0.7,60.02484260054249,
go,sst_images/Right_Arrow.bmp,None,2,724,None,0,116,116,116,,2,1,0.34276660000614356,go,0.15000000000000002,0.724,1.724,044,Scanner,R,1,2019_Sep_07_1705,SST,3.0.7,60.02484260054249,
stop,sst_images/Right_Arrow.bmp,sst_images/Stop_Arrow.bmp,none,953,None,0,117,117,117,,None,1,,stop,0.2,0.953,1.953,044,Scanner,R,1,2019_Sep_07_1705,SST,3.0.7,60.02484260054249,
go,sst_images/Left_Arrow.bmp,None,1,708,None,0,118,118,118,,1,1,0.39066246400761884,go,0.2,0.708,1.708,044,Scanner,R,1,2019_Sep_07_1705,SST,3.0.7,60.02484260054249,
go,sst_images/Right_Arrow.bmp,None,2,986,None,0,119,119,119,,2,1,0.4380433789920062,go,0.2,0.986,1.986,044,Scanner,R,1,2019_Sep_07_1705,SST,3.0.7,60.02484260054249,
go,sst_images/Left_Arrow.bmp,None,1,887,None,0,120,120,120,,1,1,0.42493771298904903,go,0.2,0.887,1.887,044,Scanner,R,1,2019_Sep_07_1705,SST,3.0.7,60.02484260054249,
go,sst_images/Right_Arrow.bmp,None,2,978,None,0,121,121,121,,2,1,0.3251641519891564,go,0.2,0.978,1.978,044,Scanner,R,1,2019_Sep_07_1705,SST,3.0.7,60.02484260054249,
go,sst_images/Right_Arrow.bmp,None,2,729,None,0,122,122,122,,2,1,0.473498193998239,go,0.2,0.729,1.729,044,Scanner,R,1,2019_Sep_07_1705,SST,3.0.7,60.02484260054249,
go,sst_images/Left_Arrow.bmp,None,1,735,None,0,123,123,123,,1,1,0.38715296699956525,go,0.2,0.735,1.7349999999999999,044,Scanner,R,1,2019_Sep_07_1705,SST,3.0.7,60.02484260054249,
stop,sst_images/Left_Arrow.bmp,sst_images/Stop_Arrow.bmp,none,838,None,0,124,124,124,,None,1,,stop,0.25,0.838,1.8379999999999999,044,Scanner,R,1,2019_Sep_07_1705,SST,3.0.7,60.02484260054249,
go,sst_images/Left_Arrow.bmp,None,1,832,None,0,125,125,125,,1,1,0.45435839699348435,go,0.25,0.832,1.8319999999999999,044,Scanner,R,1,2019_Sep_07_1705,SST,3.0.7,60.02484260054249,
go,sst_images/Left_Arrow.bmp,None,1,714,None,0,126,126,126,,1,1,0.40276550900307484,go,0.25,0.714,1.714,044,Scanner,R,1,2019_Sep_07_1705,SST,3.0.7,60.02484260054249,
go,sst_images/Right_Arrow.bmp,None,2,730,None,0,127,127,127,,1,0,0.35285400100110564,go,0.25,0.73,1.73,044,Scanner,R,1,2019_Sep_07_1705,SST,3.0.7,60.02484260054249,
go,sst_images/Left_Arrow.bmp,None,1,1027,None,0,128,128,128,,1,1,0.3746692860004259,go,0.25,1.027,2.027,044,Scanner,R,1,2019_Sep_07_1705,SST,3.0.7,60.02484260054249,
stop,sst_images/Left_Arrow.bmp,sst_images/Stop_Arrow.bmp,none,796,None,0,129,129,129,,1,0,0.37240062998898793,stop,0.2,0.796,1.9735993700110122,044,Scanner,R,1,2019_Sep_07_1705,SST,3.0.7,60.02484260054249,
go,sst_images/Left_Arrow.bmp,None,1,764,None,0,130,130,130,,1,1,0.41987790100392886,go,0.2,0.764,1.764,044,Scanner,R,1,2019_Sep_07_1705,SST,3.0.7,60.02484260054249,
go,sst_images/Left_Arrow.bmp,None,1,742,None,0,131,131,131,,1,1,0.5208931719971588,go,0.2,0.742,1.742,044,Scanner,R,1,2019_Sep_07_1705,SST,3.0.7,60.02484260054249,
stop,sst_images/Right_Arrow.bmp,sst_images/Stop_Arrow.bmp,none,705,None,0,132,132,132,,None,1,,stop,0.25,0.705,1.7049999999999998,044,Scanner,R,1,2019_Sep_07_1705,SST,3.0.7,60.02484260054249,
go,sst_images/Right_Arrow.bmp,None,2,722,None,0,133,133,133,,2,1,0.6526644650002709,go,0.25,0.722,1.722,044,Scanner,R,1,2019_Sep_07_1705,SST,3.0.7,60.02484260054249,
go,sst_images/Left_Arrow.bmp,None,1,956,None,0,134,134,134,,1,1,0.7208931210043374,go,0.25,0.956,1.956,044,Scanner,R,1,2019_Sep_07_1705,SST,3.0.7,60.02484260054249,
go,sst_images/Left_Arrow.bmp,None,1,884,None,0,135,135,135,,1,1,0.552308227008325,go,0.25,0.884,1.884,044,Scanner,R,1,2019_Sep_07_1705,SST,3.0.7,60.02484260054249,
stop,sst_images/Left_Arrow.bmp,sst_images/Stop_Arrow.bmp,none,722,None,0,136,136,136,,1,0,0.40543770098884124,stop,0.2,0.722,1.8665622990111588,044,Scanner,R,1,2019_Sep_07_1705,SST,3.0.7,60.02484260054249,
go,sst_images/Right_Arrow.bmp,None,2,816,None,0,137,137,137,,2,1,0.5888290360016981,go,0.2,0.816,1.8159999999999998,044,Scanner,R,1,2019_Sep_07_1705,SST,3.0.7,60.02484260054249,
go,sst_images/Right_Arrow.bmp,None,2,846,None,0,138,138,138,,2,1,0.3364994339935947,go,0.2,0.846,1.846,044,Scanner,R,1,2019_Sep_07_1705,SST,3.0.7,60.02484260054249,
go,sst_images/Left_Arrow.bmp,None,1,1091,None,0,139,139,139,,1,1,0.45278320299985353,go,0.2,1.091,2.091,044,Scanner,R,1,2019_Sep_07_1705,SST,3.0.7,60.02484260054249,
go,sst_images/Right_Arrow.bmp,None,2,1235,None,0,140,140,140,,2,1,0.4381000059947837,go,0.2,1.235,2.2350000000000003,044,Scanner,R,1,2019_Sep_07_1705,SST,3.0.7,60.02484260054249,
go,sst_images/Left_Arrow.bmp,None,1,834,None,0,141,141,141,,1,1,0.44032867401256226,go,0.2,0.834,1.834,044,Scanner,R,1,2019_Sep_07_1705,SST,3.0.7,60.02484260054249,
stop,sst_images/Right_Arrow.bmp,sst_images/Stop_Arrow.bmp,none,850,None,0,142,142,142,,None,1,,stop,0.25,0.85,1.8499999999999999,044,Scanner,R,1,2019_Sep_07_1705,SST,3.0.7,60.02484260054249,
go,sst_images/Left_Arrow.bmp,None,1,756,None,0,143,143,143,,1,1,0.3743609030061634,go,0.25,0.756,1.756,044,Scanner,R,1,2019_Sep_07_1705,SST,3.0.7,60.02484260054249,
go,sst_images/Right_Arrow.bmp,None,2,846,None,0,144,144,144,,2,1,0.42127153399633244,go,0.25,0.846,1.846,044,Scanner,R,1,2019_Sep_07_1705,SST,3.0.7,60.02484260054249,
go,sst_images/Left_Arrow.bmp,None,1,836,None,0,145,145,145,,1,1,0.43943830000353046,go,0.25,0.836,1.8359999999999999,044,Scanner,R,1,2019_Sep_07_1705,SST,3.0.7,60.02484260054249,
go,sst_images/Right_Arrow.bmp,None,2,1172,None,0,146,146,146,,2,1,0.4031284260126995,go,0.25,1.172,2.1719999999999997,044,Scanner,R,1,2019_Sep_07_1705,SST,3.0.7,60.02484260054249,
stop,sst_images/Right_Arrow.bmp,sst_images/Stop_Arrow.bmp,none,910,None,0,147,147,147,,None,1,,stop,0.3,0.91,1.91,044,Scanner,R,1,2019_Sep_07_1705,SST,3.0.7,60.02484260054249,
go,sst_images/Left_Arrow.bmp,None,1,802,None,0,148,148,148,,1,1,0.6553893209929811,go,0.3,0.802,1.802,044,Scanner,R,1,2019_Sep_07_1705,SST,3.0.7,60.02484260054249,
go,sst_images/Right_Arrow.bmp,None,2,729,None,0,149,149,149,,2,1,0.5043869359942619,go,0.3,0.729,1.729,044,Scanner,R,1,2019_Sep_07_1705,SST,3.0.7,60.02484260054249,
go,sst_images/Right_Arrow.bmp,None,2,838,None,0,150,150,150,,2,1,0.6208947999984957,go,0.3,0.838,1.838,044,Scanner,R,1,2019_Sep_07_1705,SST,3.0.7,60.02484260054249,
stop,sst_images/Left_Arrow.bmp,sst_images/Stop_Arrow.bmp,none,737,None,0,151,151,151,,1,0,0.48782822300563566,stop,0.25,0.737,1.8491717769943645,044,Scanner,R,1,2019_Sep_07_1705,SST,3.0.7,60.02484260054249,
go,sst_images/Left_Arrow.bmp,None,1,902,None,0,152,152,152,,1,1,0.4038939790043514,go,0.25,0.902,1.9020000000000001,044,Scanner,R,1,2019_Sep_07_1705,SST,3.0.7,60.02484260054249,
go,sst_images/Right_Arrow.bmp,None,2,812,None,0,153,153,153,,2,1,0.4882265039923368,go,0.25,0.812,1.812,044,Scanner,R,1,2019_Sep_07_1705,SST,3.0.7,60.02484260054249,
stop,sst_images/Left_Arrow.bmp,sst_images/Stop_Arrow.bmp,none,1014,None,0,154,154,154,,1,0,0.35114267900644336,stop,0.2,1.014,2.2128573209935567,044,Scanner,R,1,2019_Sep_07_1705,SST,3.0.7,60.02484260054249,
go,sst_images/Left_Arrow.bmp,None,1,736,None,0,155,155,155,,1,1,0.42159391300810967,go,0.2,0.736,1.736,044,Scanner,R,1,2019_Sep_07_1705,SST,3.0.7,60.02484260054249,
go,sst_images/Right_Arrow.bmp,None,2,1391,None,0,156,156,156,,2,1,0.4341156169975875,go,0.2,1.391,2.391,044,Scanner,R,1,2019_Sep_07_1705,SST,3.0.7,60.02484260054249,
go,sst_images/Left_Arrow.bmp,None,1,816,None,0,157,157,157,,1,1,0.33623558799445163,go,0.2,0.816,1.8159999999999998,044,Scanner,R,1,2019_Sep_07_1705,SST,3.0.7,60.02484260054249,
go,sst_images/Right_Arrow.bmp,None,2,1047,None,0,158,158,158,,2,1,0.3536789990030229,go,0.2,1.047,2.0469999999999997,044,Scanner,R,1,2019_Sep_07_1705,SST,3.0.7,60.02484260054249,
stop,sst_images/Left_Arrow.bmp,sst_images/Stop_Arrow.bmp,none,1726,None,0,159,159,159,,1,0,0.29923158200108446,stop,0.15000000000000002,1.726,2.9267684179989155,044,Scanner,R,1,2019_Sep_07_1705,SST,3.0.7,60.02484260054249,
go,sst_images/Left_Arrow.bmp,None,1,730,None,0,160,160,160,,1,1,0.40334710500610527,go,0.15000000000000002,0.73,1.73,044,Scanner,R,1,2019_Sep_07_1705,SST,3.0.7,60.02484260054249,
go,sst_images/Left_Arrow.bmp,None,1,870,None,0,161,161,161,,1,1,0.3877717470022617,go,0.15000000000000002,0.87,1.87,044,Scanner,R,1,2019_Sep_07_1705,SST,3.0.7,60.02484260054249,
go,sst_images/Right_Arrow.bmp,None,2,1053,None,0,162,162,162,,2,1,0.5001369109959342,go,0.15000000000000002,1.053,2.053,044,Scanner,R,1,2019_Sep_07_1705,SST,3.0.7,60.02484260054249,
go,sst_images/Left_Arrow.bmp,None,1,958,None,0,163,163,163,,1,1,0.3373813790094573,go,0.15000000000000002,0.958,1.958,044,Scanner,R,1,2019_Sep_07_1705,SST,3.0.7,60.02484260054249,
go,sst_images/Right_Arrow.bmp,None,2,1014,None,0,164,164,164,,2,1,0.36877929799084086,go,0.15000000000000002,1.014,2.0140000000000002,044,Scanner,R,1,2019_Sep_07_1705,SST,3.0.7,60.02484260054249,
go,sst_images/Right_Arrow.bmp,None,2,802,None,0,165,165,165,,2,1,0.4707540739909746,go,0.15000000000000002,0.802,1.802,044,Scanner,R,1,2019_Sep_07_1705,SST,3.0.7,60.02484260054249,
go,sst_images/Right_Arrow.bmp,None,2,784,None,0,166,166,166,,2,1,0.38732654599880334,go,0.15000000000000002,0.784,1.784,044,Scanner,R,1,2019_Sep_07_1705,SST,3.0.7,60.02484260054249,
stop,sst_images/Right_Arrow.bmp,sst_images/Stop_Arrow.bmp,none,718,None,0,167,167,167,,2,0,0.35284619199228473,stop,0.10000000000000002,0.718,1.8151538080077152,044,Scanner,R,1,2019_Sep_07_1705,SST,3.0.7,60.02484260054249,
go,sst_images/Left_Arrow.bmp,None,1,1038,None,0,168,168,168,,1,1,0.40458170700003393,go,0.10000000000000002,1.038,2.0380000000000003,044,Scanner,R,1,2019_Sep_07_1705,SST,3.0.7,60.02484260054249,
go,sst_images/Right_Arrow.bmp,None,2,705,None,0,169,169,169,,2,1,0.4034279070037883,go,0.10000000000000002,0.705,1.705,044,Scanner,R,1,2019_Sep_07_1705,SST,3.0.7,60.02484260054249,
go,sst_images/Right_Arrow.bmp,None,2,853,None,0,170,170,170,,2,1,0.41973724200215656,go,0.10000000000000002,0.853,1.853,044,Scanner,R,1,2019_Sep_07_1705,SST,3.0.7,60.02484260054249,
go,sst_images/Left_Arrow.bmp,None,1,861,None,0,171,171,171,,1,1,0.3854931050009327,go,0.10000000000000002,0.861,1.861,044,Scanner,R,1,2019_Sep_07_1705,SST,3.0.7,60.02484260054249,
go,sst_images/Right_Arrow.bmp,None,2,1280,None,0,172,172,172,,2,1,0.40471434500068426,go,0.10000000000000002,1.28,2.2800000000000002,044,Scanner,R,1,2019_Sep_07_1705,SST,3.0.7,60.02484260054249,
stop,sst_images/Left_Arrow.bmp,sst_images/Stop_Arrow.bmp,none,1026,None,0,173,173,173,,1,0,0.302128243012703,stop,0.05000000000000002,1.026,2.123871756987297,044,Scanner,R,1,2019_Sep_07_1705,SST,3.0.7,60.02484260054249,
go,sst_images/Right_Arrow.bmp,None,2,1176,None,0,174,174,174,,2,1,0.5311997149983654,go,0.05000000000000002,1.176,2.176,044,Scanner,R,1,2019_Sep_07_1705,SST,3.0.7,60.02484260054249,
go,sst_images/Right_Arrow.bmp,None,2,782,None,0,175,175,175,,2,1,0.39791516499826685,go,0.05000000000000002,0.782,1.782,044,Scanner,R,1,2019_Sep_07_1705,SST,3.0.7,60.02484260054249,
go,sst_images/Left_Arrow.bmp,None,1,881,None,0,176,176,176,,1,1,0.5046246970014181,go,0.05000000000000002,0.881,1.881,044,Scanner,R,1,2019_Sep_07_1705,SST,3.0.7,60.02484260054249,
go,sst_images/Right_Arrow.bmp,None,2,1235,None,0,177,177,177,,2,1,0.4373645010055043,go,0.05000000000000002,1.235,2.2350000000000003,044,Scanner,R,1,2019_Sep_07_1705,SST,3.0.7,60.02484260054249,
go,sst_images/Left_Arrow.bmp,None,1,1432,None,0,178,178,178,,1,1,0.3712756910099415,go,0.05000000000000002,1.432,2.432,044,Scanner,R,1,2019_Sep_07_1705,SST,3.0.7,60.02484260054249,
go,sst_images/Right_Arrow.bmp,None,2,750,4023.0,0,179,179,179,,2,1,0.4544278999965172,go,0.05000000000000002,0.75,1.75,044,Scanner,R,1,2019_Sep_07_1705,SST,3.0.7,60.02484260054249,
