trial_type,arrow_1,arrow_2,corrAns,jitter,run_end_fixation,trials.thisRepN,trials.thisTrialN,trials.thisN,trials.thisIndex,randomized TrialOrder,key_response.keys,key_response.corr,key_response.rt,trial_t.routineEndVal,ss_delay,iti_duration,SOA,participant,prac_or_scan,handedness,run,date,expName,psychopyVersion,frameRate,
go,sst_images/Left_Arrow.bmp,None,1,1057,None,0,0,0,0,11,1,1,0.6589832169993315,go,0.05,1.057,2.057,046,Scanner,R,2,2019_Sep_06_1550,SST,3.0.7,60.08854130769311,
go,sst_images/Right_Arrow.bmp,None,2,761,None,0,1,1,1,,2,1,0.3226291559985839,go,0.05,0.761,1.7610000000000001,046,Scanner,R,2,2019_Sep_06_1550,SST,3.0.7,60.08854130769311,
go,sst_images/Right_Arrow.bmp,None,2,1025,None,0,2,2,2,,2,1,0.3742250819996116,go,0.05,1.025,2.025,046,Scanner,R,2,2019_Sep_06_1550,SST,3.0.7,60.08854130769311,
go,sst_images/Left_Arrow.bmp,None,1,745,None,0,3,3,3,,1,1,0.30148430800181814,go,0.05,0.745,1.745,046,Scanner,R,2,2019_Sep_06_1550,SST,3.0.7,60.08854130769311,
go,sst_images/Left_Arrow.bmp,None,1,1362,None,0,4,4,4,,1,1,0.40335744000185514,go,0.05,1.362,2.362,046,Scanner,R,2,2019_Sep_06_1550,SST,3.0.7,60.08854130769311,
go,sst_images/Right_Arrow.bmp,None,2,804,None,0,5,5,5,,2,1,0.3333375900037936,go,0.05,0.804,1.804,046,Scanner,R,2,2019_Sep_06_1550,SST,3.0.7,60.08854130769311,
go,sst_images/Left_Arrow.bmp,None,1,821,None,0,6,6,6,,1,1,0.33841653499985114,go,0.05,0.821,1.821,046,Scanner,R,2,2019_Sep_06_1550,SST,3.0.7,60.08854130769311,
stop,sst_images/Right_Arrow.bmp,sst_images/Stop_Arrow.bmp,none,1001,None,0,7,7,7,,None,1,,stop,0.1,1.001,2.001,046,Scanner,R,2,2019_Sep_06_1550,SST,3.0.7,60.08854130769311,
go,sst_images/Right_Arrow.bmp,None,2,1025,None,0,8,8,8,,2,1,0.3874567270031548,go,0.1,1.025,2.025,046,Scanner,R,2,2019_Sep_06_1550,SST,3.0.7,60.08854130769311,
go,sst_images/Right_Arrow.bmp,None,2,832,None,0,9,9,9,,2,1,0.4203724230028456,go,0.1,0.832,1.8319999999999999,046,Scanner,R,2,2019_Sep_06_1550,SST,3.0.7,60.08854130769311,
go,sst_images/Left_Arrow.bmp,None,1,773,None,0,10,10,10,,1,1,0.40449037000507815,go,0.1,0.773,1.7730000000000001,046,Scanner,R,2,2019_Sep_06_1550,SST,3.0.7,60.08854130769311,
go,sst_images/Right_Arrow.bmp,None,2,1479,None,0,11,11,11,,2,1,0.37136836699937703,go,0.1,1.479,2.479,046,Scanner,R,2,2019_Sep_06_1550,SST,3.0.7,60.08854130769311,
go,sst_images/Left_Arrow.bmp,None,1,801,None,0,12,12,12,,1,1,0.5042898940009763,go,0.1,0.801,1.8010000000000002,046,Scanner,R,2,2019_Sep_06_1550,SST,3.0.7,60.08854130769311,
go,sst_images/Left_Arrow.bmp,None,1,789,None,0,13,13,13,,1,1,0.470038432002184,go,0.1,0.789,1.7890000000000001,046,Scanner,R,2,2019_Sep_06_1550,SST,3.0.7,60.08854130769311,
go,sst_images/Left_Arrow.bmp,None,1,766,None,0,14,14,14,,1,1,0.3834725670021726,go,0.1,0.766,1.766,046,Scanner,R,2,2019_Sep_06_1550,SST,3.0.7,60.08854130769311,
go,sst_images/Right_Arrow.bmp,None,2,891,None,0,15,15,15,,2,1,0.3735535359955975,go,0.1,0.891,1.891,046,Scanner,R,2,2019_Sep_06_1550,SST,3.0.7,60.08854130769311,
go,sst_images/Left_Arrow.bmp,None,1,868,None,0,16,16,16,,1,1,0.43942983799934154,go,0.1,0.868,1.8679999999999999,046,Scanner,R,2,2019_Sep_06_1550,SST,3.0.7,60.08854130769311,
go,sst_images/Left_Arrow.bmp,None,1,1445,None,0,17,17,17,,1,1,0.3897912530010217,go,0.1,1.445,2.4450000000000003,046,Scanner,R,2,2019_Sep_06_1550,SST,3.0.7,60.08854130769311,
go,sst_images/Right_Arrow.bmp,None,2,1033,None,0,18,18,18,,2,1,0.3222904229987762,go,0.1,1.033,2.033,046,Scanner,R,2,2019_Sep_06_1550,SST,3.0.7,60.08854130769311,
go,sst_images/Left_Arrow.bmp,None,1,1103,None,0,19,19,19,,1,1,0.28934634599863784,go,0.1,1.103,2.1029999999999998,046,Scanner,R,2,2019_Sep_06_1550,SST,3.0.7,60.08854130769311,
go,sst_images/Right_Arrow.bmp,None,2,808,None,0,20,20,20,,2,1,0.3730275289999554,go,0.1,0.808,1.808,046,Scanner,R,2,2019_Sep_06_1550,SST,3.0.7,60.08854130769311,
go,sst_images/Left_Arrow.bmp,None,1,1401,None,0,21,21,21,,1,1,0.3385203139987425,go,0.1,1.401,2.401,046,Scanner,R,2,2019_Sep_06_1550,SST,3.0.7,60.08854130769311,
go,sst_images/Right_Arrow.bmp,None,2,834,None,0,22,22,22,,2,1,0.32267566100199474,go,0.1,0.834,1.834,046,Scanner,R,2,2019_Sep_06_1550,SST,3.0.7,60.08854130769311,
go,sst_images/Right_Arrow.bmp,None,2,1551,None,0,23,23,23,,2,1,0.382539475998783,go,0.1,1.551,2.551,046,Scanner,R,2,2019_Sep_06_1550,SST,3.0.7,60.08854130769311,
go,sst_images/Left_Arrow.bmp,None,1,770,None,0,24,24,24,,1,1,0.28836902000330156,go,0.1,0.77,1.77,046,Scanner,R,2,2019_Sep_06_1550,SST,3.0.7,60.08854130769311,
stop,sst_images/Left_Arrow.bmp,sst_images/Stop_Arrow.bmp,none,801,None,0,25,25,25,,2,0,0.32060124399868073,stop,0.05,0.801,1.8803987560013196,046,Scanner,R,2,2019_Sep_06_1550,SST,3.0.7,60.08854130769311,
go,sst_images/Right_Arrow.bmp,None,2,810,None,0,26,26,26,,2,1,0.35481056500429986,go,0.05,0.81,1.81,046,Scanner,R,2,2019_Sep_06_1550,SST,3.0.7,60.08854130769311,
go,sst_images/Right_Arrow.bmp,None,2,783,None,0,27,27,27,,1,0,0.31996842799708247,go,0.05,0.783,1.783,046,Scanner,R,2,2019_Sep_06_1550,SST,3.0.7,60.08854130769311,
go,sst_images/Left_Arrow.bmp,None,1,1008,None,0,28,28,28,,1,1,0.30486746099632,go,0.05,1.008,2.008,046,Scanner,R,2,2019_Sep_06_1550,SST,3.0.7,60.08854130769311,
stop,sst_images/Left_Arrow.bmp,sst_images/Stop_Arrow.bmp,none,725,None,0,29,29,29,,None,1,,stop,0.1,0.725,1.725,046,Scanner,R,2,2019_Sep_06_1550,SST,3.0.7,60.08854130769311,
go,sst_images/Right_Arrow.bmp,None,2,737,None,0,30,30,30,,2,1,0.3869252799995593,go,0.1,0.737,1.737,046,Scanner,R,2,2019_Sep_06_1550,SST,3.0.7,60.08854130769311,
go,sst_images/Left_Arrow.bmp,None,1,826,None,0,31,31,31,,1,1,0.32103127000300447,go,0.1,0.826,1.826,046,Scanner,R,2,2019_Sep_06_1550,SST,3.0.7,60.08854130769311,
stop,sst_images/Right_Arrow.bmp,sst_images/Stop_Arrow.bmp,none,717,None,0,32,32,32,,2,0,0.3049385979975341,stop,0.05,0.717,1.8120614020024661,046,Scanner,R,2,2019_Sep_06_1550,SST,3.0.7,60.08854130769311,
go,sst_images/Left_Arrow.bmp,None,1,812,None,0,33,33,33,,1,1,0.41975946399907116,go,0.05,0.812,1.812,046,Scanner,R,2,2019_Sep_06_1550,SST,3.0.7,60.08854130769311,
go,sst_images/Right_Arrow.bmp,None,2,768,None,0,34,34,34,,2,1,0.321047956997063,go,0.05,0.768,1.768,046,Scanner,R,2,2019_Sep_06_1550,SST,3.0.7,60.08854130769311,
go,sst_images/Right_Arrow.bmp,None,2,957,None,0,35,35,35,,2,1,0.4514097120045335,go,0.05,0.957,1.9569999999999999,046,Scanner,R,2,2019_Sep_06_1550,SST,3.0.7,60.08854130769311,
go,sst_images/Left_Arrow.bmp,None,1,812,None,0,36,36,36,,1,1,0.32010847800120246,go,0.05,0.812,1.812,046,Scanner,R,2,2019_Sep_06_1550,SST,3.0.7,60.08854130769311,
stop,sst_images/Right_Arrow.bmp,sst_images/Stop_Arrow.bmp,none,727,None,0,37,37,37,,None,1,,stop,0.1,0.727,1.7269999999999999,046,Scanner,R,2,2019_Sep_06_1550,SST,3.0.7,60.08854130769311,
go,sst_images/Left_Arrow.bmp,None,1,818,None,0,38,38,38,,1,1,0.4047883770035696,go,0.1,0.818,1.818,046,Scanner,R,2,2019_Sep_06_1550,SST,3.0.7,60.08854130769311,
go,sst_images/Right_Arrow.bmp,None,2,746,None,0,39,39,39,,2,1,0.31749547599611105,go,0.1,0.746,1.746,046,Scanner,R,2,2019_Sep_06_1550,SST,3.0.7,60.08854130769311,
go,sst_images/Left_Arrow.bmp,None,1,834,None,0,40,40,40,,1,1,0.3049481240013847,go,0.1,0.834,1.834,046,Scanner,R,2,2019_Sep_06_1550,SST,3.0.7,60.08854130769311,
go,sst_images/Left_Arrow.bmp,None,1,1211,None,0,41,41,41,,2,0,0.2873331120063085,go,0.1,1.211,2.2110000000000003,046,Scanner,R,2,2019_Sep_06_1550,SST,3.0.7,60.08854130769311,
stop,sst_images/Left_Arrow.bmp,sst_images/Stop_Arrow.bmp,none,811,None,0,42,42,42,,None,1,,stop,0.15000000000000002,0.811,1.8110000000000002,046,Scanner,R,2,2019_Sep_06_1550,SST,3.0.7,60.08854130769311,
go,sst_images/Right_Arrow.bmp,None,2,776,None,0,43,43,43,,2,1,0.3852371419998235,go,0.15000000000000002,0.776,1.776,046,Scanner,R,2,2019_Sep_06_1550,SST,3.0.7,60.08854130769311,
go,sst_images/Right_Arrow.bmp,None,2,962,None,0,44,44,44,,2,1,0.42145484699722147,go,0.15000000000000002,0.962,1.962,046,Scanner,R,2,2019_Sep_06_1550,SST,3.0.7,60.08854130769311,
go,sst_images/Right_Arrow.bmp,None,2,871,None,0,45,45,45,,2,1,0.42092693799349945,go,0.15000000000000002,0.871,1.871,046,Scanner,R,2,2019_Sep_06_1550,SST,3.0.7,60.08854130769311,
go,sst_images/Left_Arrow.bmp,None,1,820,None,0,46,46,46,,1,1,0.3689071620028699,go,0.15000000000000002,0.82,1.8199999999999998,046,Scanner,R,2,2019_Sep_06_1550,SST,3.0.7,60.08854130769311,
go,sst_images/Left_Arrow.bmp,None,1,706,None,0,47,47,47,,1,1,0.4695315290009603,go,0.15000000000000002,0.706,1.706,046,Scanner,R,2,2019_Sep_06_1550,SST,3.0.7,60.08854130769311,
go,sst_images/Left_Arrow.bmp,None,1,970,None,0,48,48,48,,1,1,0.4544926629969268,go,0.15000000000000002,0.97,1.97,046,Scanner,R,2,2019_Sep_06_1550,SST,3.0.7,60.08854130769311,
go,sst_images/Right_Arrow.bmp,None,2,1184,None,0,49,49,49,,2,1,0.4046822599993902,go,0.15000000000000002,1.184,2.184,046,Scanner,R,2,2019_Sep_06_1550,SST,3.0.7,60.08854130769311,
go,sst_images/Right_Arrow.bmp,None,2,731,None,0,50,50,50,,2,1,0.4706513819983229,go,0.15000000000000002,0.731,1.7309999999999999,046,Scanner,R,2,2019_Sep_06_1550,SST,3.0.7,60.08854130769311,
go,sst_images/Left_Arrow.bmp,None,1,715,None,0,51,51,51,,1,1,0.504383727995446,go,0.15000000000000002,0.715,1.7149999999999999,046,Scanner,R,2,2019_Sep_06_1550,SST,3.0.7,60.08854130769311,
go,sst_images/Left_Arrow.bmp,None,1,748,None,0,52,52,52,,1,1,0.40441592300339835,go,0.15000000000000002,0.748,1.748,046,Scanner,R,2,2019_Sep_06_1550,SST,3.0.7,60.08854130769311,
stop,sst_images/Right_Arrow.bmp,sst_images/Stop_Arrow.bmp,none,808,None,0,53,53,53,,2,0,0.32025287199940067,stop,0.10000000000000002,0.808,1.9377471280005996,046,Scanner,R,2,2019_Sep_06_1550,SST,3.0.7,60.08854130769311,
go,sst_images/Left_Arrow.bmp,None,1,765,None,0,54,54,54,,1,1,0.35418709400255466,go,0.10000000000000002,0.765,1.7650000000000001,046,Scanner,R,2,2019_Sep_06_1550,SST,3.0.7,60.08854130769311,
go,sst_images/Right_Arrow.bmp,None,2,871,None,0,55,55,55,,2,1,0.3529887519980548,go,0.10000000000000002,0.871,1.871,046,Scanner,R,2,2019_Sep_06_1550,SST,3.0.7,60.08854130769311,
go,sst_images/Left_Arrow.bmp,None,1,730,None,0,56,56,56,,1,1,0.41817735400400124,go,0.10000000000000002,0.73,1.73,046,Scanner,R,2,2019_Sep_06_1550,SST,3.0.7,60.08854130769311,
stop,sst_images/Right_Arrow.bmp,sst_images/Stop_Arrow.bmp,none,766,None,0,57,57,57,,2,0,0.40117890600231476,stop,0.05000000000000002,0.766,1.7648210939976854,046,Scanner,R,2,2019_Sep_06_1550,SST,3.0.7,60.08854130769311,
go,sst_images/Left_Arrow.bmp,None,1,839,None,0,58,58,58,,1,1,0.3881912590004504,go,0.05000000000000002,0.839,1.839,046,Scanner,R,2,2019_Sep_06_1550,SST,3.0.7,60.08854130769311,
go,sst_images/Right_Arrow.bmp,None,2,842,None,0,59,59,59,,2,1,0.35235726500104647,go,0.05000000000000002,0.842,1.842,046,Scanner,R,2,2019_Sep_06_1550,SST,3.0.7,60.08854130769311,
go,sst_images/Right_Arrow.bmp,None,2,721,None,0,60,60,60,,2,1,0.7385844919990632,go,0.05000000000000002,0.721,1.721,046,Scanner,R,2,2019_Sep_06_1550,SST,3.0.7,60.08854130769311,
stop,sst_images/Left_Arrow.bmp,sst_images/Stop_Arrow.bmp,none,746,None,0,61,61,61,,None,1,,stop,0.10000000000000002,0.746,1.746,046,Scanner,R,2,2019_Sep_06_1550,SST,3.0.7,60.08854130769311,
go,sst_images/Left_Arrow.bmp,None,1,710,None,0,62,62,62,,1,1,0.5513172470018617,go,0.10000000000000002,0.71,1.71,046,Scanner,R,2,2019_Sep_06_1550,SST,3.0.7,60.08854130769311,
go,sst_images/Right_Arrow.bmp,None,2,864,None,0,63,63,63,,2,1,0.3550532330045826,go,0.10000000000000002,0.864,1.8639999999999999,046,Scanner,R,2,2019_Sep_06_1550,SST,3.0.7,60.08854130769311,
go,sst_images/Left_Arrow.bmp,None,1,804,None,0,64,64,64,,1,1,0.3716990790053387,go,0.10000000000000002,0.804,1.804,046,Scanner,R,2,2019_Sep_06_1550,SST,3.0.7,60.08854130769311,
stop,sst_images/Right_Arrow.bmp,sst_images/Stop_Arrow.bmp,none,1179,None,0,65,65,65,,2,0,0.30470087099820375,stop,0.05000000000000002,1.179,2.2742991290017964,046,Scanner,R,2,2019_Sep_06_1550,SST,3.0.7,60.08854130769311,
go,sst_images/Right_Arrow.bmp,None,2,713,None,0,66,66,66,,2,1,0.4687143510018359,go,0.05000000000000002,0.713,1.713,046,Scanner,R,2,2019_Sep_06_1550,SST,3.0.7,60.08854130769311,
go,sst_images/Right_Arrow.bmp,None,2,842,None,0,67,67,67,,2,1,0.48702806499932194,go,0.05000000000000002,0.842,1.842,046,Scanner,R,2,2019_Sep_06_1550,SST,3.0.7,60.08854130769311,
go,sst_images/Left_Arrow.bmp,None,1,738,None,0,68,68,68,,1,1,0.38563458700082265,go,0.05000000000000002,0.738,1.738,046,Scanner,R,2,2019_Sep_06_1550,SST,3.0.7,60.08854130769311,
go,sst_images/Right_Arrow.bmp,None,2,765,None,0,69,69,69,,2,1,0.4043920510011958,go,0.05000000000000002,0.765,1.7650000000000001,046,Scanner,R,2,2019_Sep_06_1550,SST,3.0.7,60.08854130769311,
stop,sst_images/Left_Arrow.bmp,sst_images/Stop_Arrow.bmp,none,1224,None,0,70,70,70,,None,1,,stop,0.10000000000000002,1.224,2.2239999999999998,046,Scanner,R,2,2019_Sep_06_1550,SST,3.0.7,60.08854130769311,
go,sst_images/Left_Arrow.bmp,None,1,1160,None,0,71,71,71,,1,1,0.38553512599901296,go,0.10000000000000002,1.16,2.16,046,Scanner,R,2,2019_Sep_06_1550,SST,3.0.7,60.08854130769311,
go,sst_images/Right_Arrow.bmp,None,2,715,None,0,72,72,72,,2,1,0.3696148790040752,go,0.10000000000000002,0.715,1.7149999999999999,046,Scanner,R,2,2019_Sep_06_1550,SST,3.0.7,60.08854130769311,
go,sst_images/Left_Arrow.bmp,None,1,1355,None,0,73,73,73,,1,1,0.28628472499985946,go,0.10000000000000002,1.355,2.355,046,Scanner,R,2,2019_Sep_06_1550,SST,3.0.7,60.08854130769311,
go,sst_images/Right_Arrow.bmp,None,2,708,None,0,74,74,74,,2,1,0.3030872149975039,go,0.10000000000000002,0.708,1.708,046,Scanner,R,2,2019_Sep_06_1550,SST,3.0.7,60.08854130769311,
stop,sst_images/Right_Arrow.bmp,sst_images/Stop_Arrow.bmp,none,789,None,0,75,75,75,,None,1,,stop,0.15000000000000002,0.789,1.7890000000000001,046,Scanner,R,2,2019_Sep_06_1550,SST,3.0.7,60.08854130769311,
go,sst_images/Right_Arrow.bmp,None,2,972,None,0,76,76,76,,2,1,0.46906486199441133,go,0.15000000000000002,0.972,1.972,046,Scanner,R,2,2019_Sep_06_1550,SST,3.0.7,60.08854130769311,
go,sst_images/Left_Arrow.bmp,None,1,988,None,0,77,77,77,,1,1,0.06943224500719225,go,0.15000000000000002,0.988,1.988,046,Scanner,R,2,2019_Sep_06_1550,SST,3.0.7,60.08854130769311,
go,sst_images/Left_Arrow.bmp,None,1,1016,None,0,78,78,78,,1,1,0.4363505869987421,go,0.15000000000000002,1.016,2.016,046,Scanner,R,2,2019_Sep_06_1550,SST,3.0.7,60.08854130769311,
go,sst_images/Right_Arrow.bmp,None,2,817,None,0,79,79,79,,1,0,0.4717203479958698,go,0.15000000000000002,0.817,1.817,046,Scanner,R,2,2019_Sep_06_1550,SST,3.0.7,60.08854130769311,
go,sst_images/Right_Arrow.bmp,None,2,1079,None,0,80,80,80,,2,1,0.4197341930048424,go,0.15000000000000002,1.079,2.0789999999999997,046,Scanner,R,2,2019_Sep_06_1550,SST,3.0.7,60.08854130769311,
stop,sst_images/Right_Arrow.bmp,sst_images/Stop_Arrow.bmp,none,1042,None,0,81,81,81,,2,0,0.40499745599663584,stop,0.10000000000000002,1.042,2.087002544003364,046,Scanner,R,2,2019_Sep_06_1550,SST,3.0.7,60.08854130769311,
go,sst_images/Right_Arrow.bmp,None,2,1224,None,0,82,82,82,,2,1,0.4878060960036237,go,0.10000000000000002,1.224,2.224,046,Scanner,R,2,2019_Sep_06_1550,SST,3.0.7,60.08854130769311,
go,sst_images/Left_Arrow.bmp,None,1,1139,None,0,83,83,83,,1,1,0.38847052399796667,go,0.10000000000000002,1.139,2.1390000000000002,046,Scanner,R,2,2019_Sep_06_1550,SST,3.0.7,60.08854130769311,
go,sst_images/Left_Arrow.bmp,None,1,830,None,0,84,84,84,,1,1,0.49657661200035363,go,0.10000000000000002,0.83,1.83,046,Scanner,R,2,2019_Sep_06_1550,SST,3.0.7,60.08854130769311,
go,sst_images/Right_Arrow.bmp,None,2,736,None,0,85,85,85,,2,1,0.37136597899370827,go,0.10000000000000002,0.736,1.736,046,Scanner,R,2,2019_Sep_06_1550,SST,3.0.7,60.08854130769311,
go,sst_images/Left_Arrow.bmp,None,1,877,None,0,86,86,86,,1,1,0.5523780469957273,go,0.10000000000000002,0.877,1.877,046,Scanner,R,2,2019_Sep_06_1550,SST,3.0.7,60.08854130769311,
go,sst_images/Right_Arrow.bmp,None,2,737,None,0,87,87,87,,2,1,0.43401222299871733,go,0.10000000000000002,0.737,1.737,046,Scanner,R,2,2019_Sep_06_1550,SST,3.0.7,60.08854130769311,
stop,sst_images/Left_Arrow.bmp,sst_images/Stop_Arrow.bmp,none,900,None,0,88,88,88,,1,0,0.3355620660004206,stop,0.05000000000000002,0.9,1.9644379339995794,046,Scanner,R,2,2019_Sep_06_1550,SST,3.0.7,60.08854130769311,
go,sst_images/Left_Arrow.bmp,None,1,1427,None,0,89,89,89,,1,1,0.4044511960019008,go,0.05000000000000002,1.427,2.427,046,Scanner,R,2,2019_Sep_06_1550,SST,3.0.7,60.08854130769311,
go,sst_images/Right_Arrow.bmp,None,2,807,None,0,90,90,90,,1,0,0.3699752359971171,go,0.05000000000000002,0.807,1.807,046,Scanner,R,2,2019_Sep_06_1550,SST,3.0.7,60.08854130769311,
go,sst_images/Left_Arrow.bmp,None,1,864,None,0,91,91,91,,1,1,0.36986881200573407,go,0.05000000000000002,0.864,1.8639999999999999,046,Scanner,R,2,2019_Sep_06_1550,SST,3.0.7,60.08854130769311,
go,sst_images/Left_Arrow.bmp,None,1,751,None,0,92,92,92,,1,1,0.5868480689969147,go,0.05000000000000002,0.751,1.751,046,Scanner,R,2,2019_Sep_06_1550,SST,3.0.7,60.08854130769311,
stop,sst_images/Right_Arrow.bmp,sst_images/Stop_Arrow.bmp,none,781,None,0,93,93,93,,None,1,,stop,0.10000000000000002,0.781,1.7810000000000001,046,Scanner,R,2,2019_Sep_06_1550,SST,3.0.7,60.08854130769311,
go,sst_images/Left_Arrow.bmp,None,1,759,None,0,94,94,94,,1,1,0.45474629300588276,go,0.10000000000000002,0.759,1.759,046,Scanner,R,2,2019_Sep_06_1550,SST,3.0.7,60.08854130769311,
go,sst_images/Right_Arrow.bmp,None,2,885,None,0,95,95,95,,2,1,0.35408535299939103,go,0.10000000000000002,0.885,1.885,046,Scanner,R,2,2019_Sep_06_1550,SST,3.0.7,60.08854130769311,
go,sst_images/Left_Arrow.bmp,None,1,941,None,0,96,96,96,,1,1,0.3361159849955584,go,0.10000000000000002,0.941,1.9409999999999998,046,Scanner,R,2,2019_Sep_06_1550,SST,3.0.7,60.08854130769311,
go,sst_images/Right_Arrow.bmp,None,2,1090,None,0,97,97,97,,2,1,0.2869701979943784,go,0.10000000000000002,1.09,2.09,046,Scanner,R,2,2019_Sep_06_1550,SST,3.0.7,60.08854130769311,
go,sst_images/Right_Arrow.bmp,None,2,948,None,0,98,98,98,,1,0,0.07796481299737934,go,0.10000000000000002,0.948,1.948,046,Scanner,R,2,2019_Sep_06_1550,SST,3.0.7,60.08854130769311,
go,sst_images/Left_Arrow.bmp,None,1,856,None,0,99,99,99,,1,1,0.2862992000009399,go,0.10000000000000002,0.856,1.8559999999999999,046,Scanner,R,2,2019_Sep_06_1550,SST,3.0.7,60.08854130769311,
go,sst_images/Right_Arrow.bmp,None,2,957,None,0,100,100,100,,2,1,0.2977121790027013,go,0.10000000000000002,0.957,1.9569999999999999,046,Scanner,R,2,2019_Sep_06_1550,SST,3.0.7,60.08854130769311,
go,sst_images/Right_Arrow.bmp,None,2,1100,None,0,101,101,101,,2,1,0.4456165739975404,go,0.10000000000000002,1.1,2.1,046,Scanner,R,2,2019_Sep_06_1550,SST,3.0.7,60.08854130769311,
go,sst_images/Left_Arrow.bmp,None,1,799,None,0,102,102,102,,1,1,0.34475466499861795,go,0.10000000000000002,0.799,1.799,046,Scanner,R,2,2019_Sep_06_1550,SST,3.0.7,60.08854130769311,
go,sst_images/Left_Arrow.bmp,None,1,842,None,0,103,103,103,,1,1,0.42790413399779936,go,0.10000000000000002,0.842,1.842,046,Scanner,R,2,2019_Sep_06_1550,SST,3.0.7,60.08854130769311,
stop,sst_images/Right_Arrow.bmp,sst_images/Stop_Arrow.bmp,none,904,None,0,104,104,104,,2,0,0.2948409509990597,stop,0.05000000000000002,0.904,2.00915904900094,046,Scanner,R,2,2019_Sep_06_1550,SST,3.0.7,60.08854130769311,
go,sst_images/Right_Arrow.bmp,None,2,900,None,0,105,105,105,,2,1,0.4438176530020428,go,0.05000000000000002,0.9,1.9,046,Scanner,R,2,2019_Sep_06_1550,SST,3.0.7,60.08854130769311,
go,sst_images/Right_Arrow.bmp,None,2,798,None,0,106,106,106,,2,1,0.4418638579954859,go,0.05000000000000002,0.798,1.798,046,Scanner,R,2,2019_Sep_06_1550,SST,3.0.7,60.08854130769311,
go,sst_images/Left_Arrow.bmp,None,1,1028,None,0,107,107,107,,1,1,0.4431793670009938,go,0.05000000000000002,1.028,2.028,046,Scanner,R,2,2019_Sep_06_1550,SST,3.0.7,60.08854130769311,
go,sst_images/Right_Arrow.bmp,None,2,1006,None,0,108,108,108,,2,1,0.33813110399933066,go,0.05000000000000002,1.006,2.0060000000000002,046,Scanner,R,2,2019_Sep_06_1550,SST,3.0.7,60.08854130769311,
go,sst_images/Left_Arrow.bmp,None,1,881,None,0,109,109,109,,1,1,0.29422617200179957,go,0.05000000000000002,0.881,1.881,046,Scanner,R,2,2019_Sep_06_1550,SST,3.0.7,60.08854130769311,
go,sst_images/Right_Arrow.bmp,None,2,774,None,0,110,110,110,,2,1,0.34459022500232095,go,0.05000000000000002,0.774,1.774,046,Scanner,R,2,2019_Sep_06_1550,SST,3.0.7,60.08854130769311,
go,sst_images/Left_Arrow.bmp,None,1,827,None,0,111,111,111,,1,1,0.3614438369986601,go,0.05000000000000002,0.827,1.827,046,Scanner,R,2,2019_Sep_06_1550,SST,3.0.7,60.08854130769311,
go,sst_images/Right_Arrow.bmp,None,2,746,None,0,112,112,112,,2,1,0.29399782299879007,go,0.05000000000000002,0.746,1.746,046,Scanner,R,2,2019_Sep_06_1550,SST,3.0.7,60.08854130769311,
stop,sst_images/Left_Arrow.bmp,sst_images/Stop_Arrow.bmp,none,768,None,0,113,113,113,,None,1,,stop,0.10000000000000002,0.768,1.768,046,Scanner,R,2,2019_Sep_06_1550,SST,3.0.7,60.08854130769311,
go,sst_images/Left_Arrow.bmp,None,1,745,None,0,114,114,114,,1,1,0.3707101440013503,go,0.10000000000000002,0.745,1.745,046,Scanner,R,2,2019_Sep_06_1550,SST,3.0.7,60.08854130769311,
go,sst_images/Right_Arrow.bmp,None,2,1831,None,0,115,115,115,,2,1,0.39084153499425156,go,0.10000000000000002,1.831,2.831,046,Scanner,R,2,2019_Sep_06_1550,SST,3.0.7,60.08854130769311,
go,sst_images/Left_Arrow.bmp,None,1,981,None,0,116,116,116,,1,1,0.35924888000590727,go,0.10000000000000002,0.981,1.9809999999999999,046,Scanner,R,2,2019_Sep_06_1550,SST,3.0.7,60.08854130769311,
go,sst_images/Right_Arrow.bmp,None,2,778,None,0,117,117,117,,2,1,0.5048218949959846,go,0.10000000000000002,0.778,1.778,046,Scanner,R,2,2019_Sep_06_1550,SST,3.0.7,60.08854130769311,
go,sst_images/Left_Arrow.bmp,None,1,1337,None,0,118,118,118,,1,1,0.4121643350008526,go,0.10000000000000002,1.337,2.3369999999999997,046,Scanner,R,2,2019_Sep_06_1550,SST,3.0.7,60.08854130769311,
stop,sst_images/Left_Arrow.bmp,sst_images/Stop_Arrow.bmp,none,861,None,0,119,119,119,,1,0,0.4255103190007503,stop,0.05000000000000002,0.861,1.8354896809992498,046,Scanner,R,2,2019_Sep_06_1550,SST,3.0.7,60.08854130769311,
go,sst_images/Right_Arrow.bmp,None,2,988,None,0,120,120,120,,2,1,0.4079896050025127,go,0.05000000000000002,0.988,1.988,046,Scanner,R,2,2019_Sep_06_1550,SST,3.0.7,60.08854130769311,
go,sst_images/Right_Arrow.bmp,None,2,757,None,0,121,121,121,,2,1,0.39139867199992295,go,0.05000000000000002,0.757,1.7570000000000001,046,Scanner,R,2,2019_Sep_06_1550,SST,3.0.7,60.08854130769311,
stop,sst_images/Right_Arrow.bmp,sst_images/Stop_Arrow.bmp,none,842,None,0,122,122,122,,None,1,,stop,0.10000000000000002,0.842,1.842,046,Scanner,R,2,2019_Sep_06_1550,SST,3.0.7,60.08854130769311,
go,sst_images/Left_Arrow.bmp,None,1,730,None,0,123,123,123,,1,1,0.5262982589993044,go,0.10000000000000002,0.73,1.73,046,Scanner,R,2,2019_Sep_06_1550,SST,3.0.7,60.08854130769311,
go,sst_images/Left_Arrow.bmp,None,1,747,None,0,124,124,124,,1,1,0.43570667799940566,go,0.10000000000000002,0.747,1.7469999999999999,046,Scanner,R,2,2019_Sep_06_1550,SST,3.0.7,60.08854130769311,
go,sst_images/Left_Arrow.bmp,None,1,948,None,0,125,125,125,,1,1,0.40166947100078687,go,0.10000000000000002,0.948,1.948,046,Scanner,R,2,2019_Sep_06_1550,SST,3.0.7,60.08854130769311,
go,sst_images/Right_Arrow.bmp,None,2,867,None,0,126,126,126,,2,1,0.4229871679999633,go,0.10000000000000002,0.867,1.867,046,Scanner,R,2,2019_Sep_06_1550,SST,3.0.7,60.08854130769311,
go,sst_images/Left_Arrow.bmp,None,1,979,None,0,127,127,127,,1,1,0.40814896599476924,go,0.10000000000000002,0.979,1.979,046,Scanner,R,2,2019_Sep_06_1550,SST,3.0.7,60.08854130769311,
stop,sst_images/Left_Arrow.bmp,sst_images/Stop_Arrow.bmp,none,812,None,0,128,128,128,,None,1,,stop,0.15000000000000002,0.812,1.812,046,Scanner,R,2,2019_Sep_06_1550,SST,3.0.7,60.08854130769311,
go,sst_images/Left_Arrow.bmp,None,1,997,None,0,129,129,129,,1,1,0.4412672729959013,go,0.15000000000000002,0.997,1.9969999999999999,046,Scanner,R,2,2019_Sep_06_1550,SST,3.0.7,60.08854130769311,
go,sst_images/Left_Arrow.bmp,None,1,848,None,0,130,130,130,,1,1,0.3909791839978425,go,0.15000000000000002,0.848,1.8479999999999999,046,Scanner,R,2,2019_Sep_06_1550,SST,3.0.7,60.08854130769311,
go,sst_images/Right_Arrow.bmp,None,2,818,None,0,131,131,131,,2,1,0.3591172460000962,go,0.15000000000000002,0.818,1.818,046,Scanner,R,2,2019_Sep_06_1550,SST,3.0.7,60.08854130769311,
stop,sst_images/Left_Arrow.bmp,sst_images/Stop_Arrow.bmp,none,743,None,0,132,132,132,,None,1,,stop,0.2,0.743,1.743,046,Scanner,R,2,2019_Sep_06_1550,SST,3.0.7,60.08854130769311,
go,sst_images/Left_Arrow.bmp,None,1,965,None,0,133,133,133,,1,1,0.37521642999490723,go,0.2,0.965,1.9649999999999999,046,Scanner,R,2,2019_Sep_06_1550,SST,3.0.7,60.08854130769311,
go,sst_images/Left_Arrow.bmp,None,1,758,None,0,134,134,134,,2,0,0.29413406800449593,go,0.2,0.758,1.758,046,Scanner,R,2,2019_Sep_06_1550,SST,3.0.7,60.08854130769311,
stop,sst_images/Right_Arrow.bmp,sst_images/Stop_Arrow.bmp,none,746,None,0,135,135,135,,2,0,0.4874532200046815,stop,0.15000000000000002,0.746,1.7585467799953185,046,Scanner,R,2,2019_Sep_06_1550,SST,3.0.7,60.08854130769311,
go,sst_images/Right_Arrow.bmp,None,2,811,None,0,136,136,136,,2,1,0.4413308419971145,go,0.15000000000000002,0.811,1.811,046,Scanner,R,2,2019_Sep_06_1550,SST,3.0.7,60.08854130769311,
go,sst_images/Right_Arrow.bmp,None,2,771,None,0,137,137,137,,2,1,0.38752860100066755,go,0.15000000000000002,0.771,1.771,046,Scanner,R,2,2019_Sep_06_1550,SST,3.0.7,60.08854130769311,
stop,sst_images/Left_Arrow.bmp,sst_images/Stop_Arrow.bmp,none,702,None,0,138,138,138,,1,0,0.3874633189989254,stop,0.10000000000000002,0.702,1.7645366810010745,046,Scanner,R,2,2019_Sep_06_1550,SST,3.0.7,60.08854130769311,
go,sst_images/Left_Arrow.bmp,None,1,1050,None,0,139,139,139,,1,1,0.40326234299573116,go,0.10000000000000002,1.05,2.05,046,Scanner,R,2,2019_Sep_06_1550,SST,3.0.7,60.08854130769311,
go,sst_images/Right_Arrow.bmp,None,2,743,None,0,140,140,140,,2,1,0.3845265999989351,go,0.10000000000000002,0.743,1.7429999999999999,046,Scanner,R,2,2019_Sep_06_1550,SST,3.0.7,60.08854130769311,
go,sst_images/Left_Arrow.bmp,None,1,746,None,0,141,141,141,,1,1,0.35236778700345894,go,0.10000000000000002,0.746,1.746,046,Scanner,R,2,2019_Sep_06_1550,SST,3.0.7,60.08854130769311,
stop,sst_images/Right_Arrow.bmp,sst_images/Stop_Arrow.bmp,none,720,None,0,142,142,142,,None,1,,stop,0.15000000000000002,0.72,1.72,046,Scanner,R,2,2019_Sep_06_1550,SST,3.0.7,60.08854130769311,
go,sst_images/Left_Arrow.bmp,None,1,739,None,0,143,143,143,,1,1,0.5698087369964924,go,0.15000000000000002,0.739,1.7389999999999999,046,Scanner,R,2,2019_Sep_06_1550,SST,3.0.7,60.08854130769311,
go,sst_images/Right_Arrow.bmp,None,2,930,None,0,144,144,144,,2,1,0.3345473049994325,go,0.15000000000000002,0.93,1.9300000000000002,046,Scanner,R,2,2019_Sep_06_1550,SST,3.0.7,60.08854130769311,
go,sst_images/Left_Arrow.bmp,None,1,1691,None,0,145,145,145,,1,1,0.3528216699996847,go,0.15000000000000002,1.691,2.691,046,Scanner,R,2,2019_Sep_06_1550,SST,3.0.7,60.08854130769311,
go,sst_images/Right_Arrow.bmp,None,2,768,None,0,146,146,146,,2,1,0.6063327779993415,go,0.15000000000000002,0.768,1.768,046,Scanner,R,2,2019_Sep_06_1550,SST,3.0.7,60.08854130769311,
go,sst_images/Left_Arrow.bmp,None,1,2000,None,0,147,147,147,,None,0,,go,0.15000000000000002,2.0,3.0,046,Scanner,R,2,2019_Sep_06_1550,SST,3.0.7,60.08854130769311,
go,sst_images/Right_Arrow.bmp,None,2,811,None,0,148,148,148,,2,1,0.3052429620001931,go,0.15000000000000002,0.811,1.811,046,Scanner,R,2,2019_Sep_06_1550,SST,3.0.7,60.08854130769311,
stop,sst_images/Right_Arrow.bmp,sst_images/Stop_Arrow.bmp,none,730,None,0,149,149,149,,1,0,0.3716452699954971,stop,0.10000000000000002,0.73,1.8083547300045029,046,Scanner,R,2,2019_Sep_06_1550,SST,3.0.7,60.08854130769311,
go,sst_images/Right_Arrow.bmp,None,2,729,None,0,150,150,150,,2,1,0.4716828370001167,go,0.10000000000000002,0.729,1.729,046,Scanner,R,2,2019_Sep_06_1550,SST,3.0.7,60.08854130769311,
go,sst_images/Left_Arrow.bmp,None,1,741,None,0,151,151,151,,1,1,0.3893317659967579,go,0.10000000000000002,0.741,1.741,046,Scanner,R,2,2019_Sep_06_1550,SST,3.0.7,60.08854130769311,
go,sst_images/Right_Arrow.bmp,None,2,863,None,0,152,152,152,,2,1,0.4524380739967455,go,0.10000000000000002,0.863,1.863,046,Scanner,R,2,2019_Sep_06_1550,SST,3.0.7,60.08854130769311,
go,sst_images/Left_Arrow.bmp,None,1,781,None,0,153,153,153,,1,1,0.38645007999730296,go,0.10000000000000002,0.781,1.7810000000000001,046,Scanner,R,2,2019_Sep_06_1550,SST,3.0.7,60.08854130769311,
stop,sst_images/Left_Arrow.bmp,sst_images/Stop_Arrow.bmp,none,797,None,0,154,154,154,,2,0,0.37248426300357096,stop,0.05000000000000002,0.797,1.8245157369964293,046,Scanner,R,2,2019_Sep_06_1550,SST,3.0.7,60.08854130769311,
go,sst_images/Right_Arrow.bmp,None,2,725,None,0,155,155,155,,2,1,0.6390858249942539,go,0.05000000000000002,0.725,1.725,046,Scanner,R,2,2019_Sep_06_1550,SST,3.0.7,60.08854130769311,
go,sst_images/Left_Arrow.bmp,None,1,1040,None,0,156,156,156,,1,1,0.3718633000025875,go,0.05000000000000002,1.04,2.04,046,Scanner,R,2,2019_Sep_06_1550,SST,3.0.7,60.08854130769311,
stop,sst_images/Left_Arrow.bmp,sst_images/Stop_Arrow.bmp,none,726,None,0,157,157,157,,None,1,,stop,0.10000000000000002,0.726,1.726,046,Scanner,R,2,2019_Sep_06_1550,SST,3.0.7,60.08854130769311,
go,sst_images/Right_Arrow.bmp,None,2,759,None,0,158,158,158,,2,1,0.6215075010040891,go,0.10000000000000002,0.759,1.759,046,Scanner,R,2,2019_Sep_06_1550,SST,3.0.7,60.08854130769311,
go,sst_images/Left_Arrow.bmp,None,1,816,None,0,159,159,159,,1,1,0.48915877200488467,go,0.10000000000000002,0.816,1.8159999999999998,046,Scanner,R,2,2019_Sep_06_1550,SST,3.0.7,60.08854130769311,
go,sst_images/Left_Arrow.bmp,None,1,706,None,0,160,160,160,,1,1,0.5548632770005497,go,0.10000000000000002,0.706,1.706,046,Scanner,R,2,2019_Sep_06_1550,SST,3.0.7,60.08854130769311,
go,sst_images/Right_Arrow.bmp,None,2,997,None,0,161,161,161,,2,1,0.48748158299713396,go,0.10000000000000002,0.997,1.9969999999999999,046,Scanner,R,2,2019_Sep_06_1550,SST,3.0.7,60.08854130769311,
go,sst_images/Left_Arrow.bmp,None,1,1279,None,0,162,162,162,,1,1,0.38675727000372717,go,0.10000000000000002,1.279,2.279,046,Scanner,R,2,2019_Sep_06_1550,SST,3.0.7,60.08854130769311,
go,sst_images/Right_Arrow.bmp,None,2,887,None,0,163,163,163,,2,1,0.3869949549989542,go,0.10000000000000002,0.887,1.887,046,Scanner,R,2,2019_Sep_06_1550,SST,3.0.7,60.08854130769311,
go,sst_images/Right_Arrow.bmp,None,2,880,None,0,164,164,164,,2,1,0.3561218620016007,go,0.10000000000000002,0.88,1.88,046,Scanner,R,2,2019_Sep_06_1550,SST,3.0.7,60.08854130769311,
go,sst_images/Right_Arrow.bmp,None,2,1248,None,0,165,165,165,,2,1,0.4046449629968265,go,0.10000000000000002,1.248,2.248,046,Scanner,R,2,2019_Sep_06_1550,SST,3.0.7,60.08854130769311,
go,sst_images/Left_Arrow.bmp,None,1,863,None,0,166,166,166,,1,1,0.3875778639994678,go,0.10000000000000002,0.863,1.863,046,Scanner,R,2,2019_Sep_06_1550,SST,3.0.7,60.08854130769311,
go,sst_images/Right_Arrow.bmp,None,2,850,None,0,167,167,167,,2,1,0.6204009619978024,go,0.10000000000000002,0.85,1.85,046,Scanner,R,2,2019_Sep_06_1550,SST,3.0.7,60.08854130769311,
stop,sst_images/Left_Arrow.bmp,sst_images/Stop_Arrow.bmp,none,1050,None,0,168,168,168,,None,1,,stop,0.15000000000000002,1.05,2.05,046,Scanner,R,2,2019_Sep_06_1550,SST,3.0.7,60.08854130769311,
go,sst_images/Right_Arrow.bmp,None,2,967,None,0,169,169,169,,2,1,0.3868934190031723,go,0.15000000000000002,0.967,1.967,046,Scanner,R,2,2019_Sep_06_1550,SST,3.0.7,60.08854130769311,
go,sst_images/Left_Arrow.bmp,None,1,924,None,0,170,170,170,,1,1,0.4207714419972035,go,0.15000000000000002,0.924,1.924,046,Scanner,R,2,2019_Sep_06_1550,SST,3.0.7,60.08854130769311,
go,sst_images/Right_Arrow.bmp,None,2,861,None,0,171,171,171,,2,1,0.3093619760038564,go,0.15000000000000002,0.861,1.861,046,Scanner,R,2,2019_Sep_06_1550,SST,3.0.7,60.08854130769311,
go,sst_images/Right_Arrow.bmp,None,2,781,None,0,172,172,172,,2,1,0.4536845140028163,go,0.15000000000000002,0.781,1.7810000000000001,046,Scanner,R,2,2019_Sep_06_1550,SST,3.0.7,60.08854130769311,
go,sst_images/Right_Arrow.bmp,None,2,740,None,0,173,173,173,,2,1,0.43674525700043887,go,0.15000000000000002,0.74,1.74,046,Scanner,R,2,2019_Sep_06_1550,SST,3.0.7,60.08854130769311,
go,sst_images/Left_Arrow.bmp,None,1,727,None,0,174,174,174,,1,1,0.4037136479964829,go,0.15000000000000002,0.727,1.7269999999999999,046,Scanner,R,2,2019_Sep_06_1550,SST,3.0.7,60.08854130769311,
stop,sst_images/Right_Arrow.bmp,sst_images/Stop_Arrow.bmp,none,795,None,0,175,175,175,,2,0,0.35275587800424546,stop,0.10000000000000002,0.795,1.8922441219957544,046,Scanner,R,2,2019_Sep_06_1550,SST,3.0.7,60.08854130769311,
go,sst_images/Right_Arrow.bmp,None,2,813,None,0,176,176,176,,2,1,0.452538468001876,go,0.10000000000000002,0.813,1.813,046,Scanner,R,2,2019_Sep_06_1550,SST,3.0.7,60.08854130769311,
go,sst_images/Left_Arrow.bmp,None,1,750,None,0,177,177,177,,1,1,0.32011263200547546,go,0.10000000000000002,0.75,1.75,046,Scanner,R,2,2019_Sep_06_1550,SST,3.0.7,60.08854130769311,
stop,sst_images/Left_Arrow.bmp,sst_images/Stop_Arrow.bmp,none,740,None,0,178,178,178,,2,0,0.32114463100151625,stop,0.05000000000000002,0.74,1.8188553689984839,046,Scanner,R,2,2019_Sep_06_1550,SST,3.0.7,60.08854130769311,
go,sst_images/Right_Arrow.bmp,None,2,1094,5200.0,0,179,179,179,,2,1,0.40327838600205723,go,0.05000000000000002,1.094,2.0940000000000003,046,Scanner,R,2,2019_Sep_06_1550,SST,3.0.7,60.08854130769311,
