trial_type,arrow_1,arrow_2,corrAns,jitter,run_end_fixation,trials.thisRepN,trials.thisTrialN,trials.thisN,trials.thisIndex,randomized TrialOrder,key_response.keys,key_response.corr,key_response.rt,trial_t.routineEndVal,ss_delay,iti_duration,SOA,participant,prac_or_scan,handedness,run,date,expName,psychopyVersion,frameRate,
go,sst_images/Left_Arrow.bmp,None,1,924,None,0,0,0,0,11,1,1,0.7036039169979631,go,0.05,0.924,1.924,046,Scanner,R,1,2019_Sep_06_1543,SST,3.0.7,59.599474960203544,
go,sst_images/Right_Arrow.bmp,None,2,771,None,0,1,1,1,,2,1,0.5048064529983094,go,0.05,0.771,1.771,046,Scanner,R,1,2019_Sep_06_1543,SST,3.0.7,59.599474960203544,
stop,sst_images/Right_Arrow.bmp,sst_images/Stop_Arrow.bmp,none,954,None,0,2,2,2,,None,1,,stop,0.1,0.954,1.954,046,Scanner,R,1,2019_Sep_06_1543,SST,3.0.7,59.599474960203544,
go,sst_images/Right_Arrow.bmp,None,2,902,None,0,3,3,3,,1,0,0.2709400599997025,go,0.1,0.902,1.9020000000000001,046,Scanner,R,1,2019_Sep_06_1543,SST,3.0.7,59.599474960203544,
go,sst_images/Left_Arrow.bmp,None,1,711,None,0,4,4,4,,1,1,0.3204346260026796,go,0.1,0.711,1.7109999999999999,046,Scanner,R,1,2019_Sep_06_1543,SST,3.0.7,59.599474960203544,
stop,sst_images/Left_Arrow.bmp,sst_images/Stop_Arrow.bmp,none,718,None,0,5,5,5,,None,1,,stop,0.15000000000000002,0.718,1.7180000000000002,046,Scanner,R,1,2019_Sep_06_1543,SST,3.0.7,59.599474960203544,
go,sst_images/Left_Arrow.bmp,None,1,875,None,0,6,6,6,,1,1,0.3719238560006488,go,0.15000000000000002,0.875,1.875,046,Scanner,R,1,2019_Sep_06_1543,SST,3.0.7,59.599474960203544,
go,sst_images/Right_Arrow.bmp,None,2,798,None,0,7,7,7,,2,1,0.35453352599870414,go,0.15000000000000002,0.798,1.798,046,Scanner,R,1,2019_Sep_06_1543,SST,3.0.7,59.599474960203544,
go,sst_images/Left_Arrow.bmp,None,1,794,None,0,8,8,8,,1,1,0.33229145299992524,go,0.15000000000000002,0.794,1.794,046,Scanner,R,1,2019_Sep_06_1543,SST,3.0.7,59.599474960203544,
stop,sst_images/Left_Arrow.bmp,sst_images/Stop_Arrow.bmp,none,704,None,0,9,9,9,,None,1,,stop,0.2,0.704,1.704,046,Scanner,R,1,2019_Sep_06_1543,SST,3.0.7,59.599474960203544,
go,sst_images/Right_Arrow.bmp,None,2,731,None,0,10,10,10,,2,1,0.42029988600552315,go,0.2,0.731,1.7309999999999999,046,Scanner,R,1,2019_Sep_06_1543,SST,3.0.7,59.599474960203544,
go,sst_images/Right_Arrow.bmp,None,2,715,None,0,11,11,11,,2,1,0.45300640600180486,go,0.2,0.715,1.7149999999999999,046,Scanner,R,1,2019_Sep_06_1543,SST,3.0.7,59.599474960203544,
stop,sst_images/Right_Arrow.bmp,sst_images/Stop_Arrow.bmp,none,879,None,0,12,12,12,,2,0,0.383405180000409,stop,0.15000000000000002,0.879,1.995594819999591,046,Scanner,R,1,2019_Sep_06_1543,SST,3.0.7,59.599474960203544,
go,sst_images/Left_Arrow.bmp,None,1,1153,None,0,13,13,13,,1,1,0.38705651900090743,go,0.15000000000000002,1.153,2.153,046,Scanner,R,1,2019_Sep_06_1543,SST,3.0.7,59.599474960203544,
go,sst_images/Right_Arrow.bmp,None,2,1426,None,0,14,14,14,,2,1,0.35209415199642535,go,0.15000000000000002,1.426,2.426,046,Scanner,R,1,2019_Sep_06_1543,SST,3.0.7,59.599474960203544,
go,sst_images/Left_Arrow.bmp,None,1,776,None,0,15,15,15,,1,1,0.32946014199842466,go,0.15000000000000002,0.776,1.776,046,Scanner,R,1,2019_Sep_06_1543,SST,3.0.7,59.599474960203544,
go,sst_images/Left_Arrow.bmp,None,1,757,None,0,16,16,16,,1,1,0.45425761500519,go,0.15000000000000002,0.757,1.7570000000000001,046,Scanner,R,1,2019_Sep_06_1543,SST,3.0.7,59.599474960203544,
go,sst_images/Left_Arrow.bmp,None,1,735,None,0,17,17,17,,1,1,0.4045185279974248,go,0.15000000000000002,0.735,1.7349999999999999,046,Scanner,R,1,2019_Sep_06_1543,SST,3.0.7,59.599474960203544,
stop,sst_images/Right_Arrow.bmp,sst_images/Stop_Arrow.bmp,none,855,None,0,18,18,18,,None,1,,stop,0.2,0.855,1.8549999999999998,046,Scanner,R,1,2019_Sep_06_1543,SST,3.0.7,59.599474960203544,
go,sst_images/Right_Arrow.bmp,None,2,787,None,0,19,19,19,,2,1,0.38828357299644267,go,0.2,0.787,1.787,046,Scanner,R,1,2019_Sep_06_1543,SST,3.0.7,59.599474960203544,
go,sst_images/Left_Arrow.bmp,None,1,886,None,0,20,20,20,,1,1,0.3714330250004423,go,0.2,0.886,1.8860000000000001,046,Scanner,R,1,2019_Sep_06_1543,SST,3.0.7,59.599474960203544,
go,sst_images/Left_Arrow.bmp,None,1,872,None,0,21,21,21,,1,1,0.38669219500297913,go,0.2,0.872,1.8719999999999999,046,Scanner,R,1,2019_Sep_06_1543,SST,3.0.7,59.599474960203544,
stop,sst_images/Left_Arrow.bmp,sst_images/Stop_Arrow.bmp,none,843,None,0,22,22,22,,1,0,0.35403373900044244,stop,0.15000000000000002,0.843,1.9889662609995575,046,Scanner,R,1,2019_Sep_06_1543,SST,3.0.7,59.599474960203544,
go,sst_images/Right_Arrow.bmp,None,2,717,None,0,23,23,23,,2,1,0.35417393000534503,go,0.15000000000000002,0.717,1.717,046,Scanner,R,1,2019_Sep_06_1543,SST,3.0.7,59.599474960203544,
go,sst_images/Left_Arrow.bmp,None,1,800,None,0,24,24,24,,1,1,0.3862937049998436,go,0.15000000000000002,0.8,1.8,046,Scanner,R,1,2019_Sep_06_1543,SST,3.0.7,59.599474960203544,
go,sst_images/Right_Arrow.bmp,None,2,836,None,0,25,25,25,,2,1,0.32250027500413125,go,0.15000000000000002,0.836,1.8359999999999999,046,Scanner,R,1,2019_Sep_06_1543,SST,3.0.7,59.599474960203544,
stop,sst_images/Right_Arrow.bmp,sst_images/Stop_Arrow.bmp,none,1015,None,0,26,26,26,,1,0,0.2934445289938594,stop,0.10000000000000002,1.015,2.1715554710061404,046,Scanner,R,1,2019_Sep_06_1543,SST,3.0.7,59.599474960203544,
go,sst_images/Left_Arrow.bmp,None,1,718,None,0,27,27,27,,1,1,0.3287688850032282,go,0.10000000000000002,0.718,1.718,046,Scanner,R,1,2019_Sep_06_1543,SST,3.0.7,59.599474960203544,
go,sst_images/Right_Arrow.bmp,None,2,807,None,0,28,28,28,,2,1,0.3385508120045415,go,0.10000000000000002,0.807,1.807,046,Scanner,R,1,2019_Sep_06_1543,SST,3.0.7,59.599474960203544,
go,sst_images/Right_Arrow.bmp,None,2,757,None,0,29,29,29,,2,1,0.3711916920001386,go,0.10000000000000002,0.757,1.7570000000000001,046,Scanner,R,1,2019_Sep_06_1543,SST,3.0.7,59.599474960203544,
go,sst_images/Left_Arrow.bmp,None,1,974,None,0,30,30,30,,1,1,0.31979902599414345,go,0.10000000000000002,0.974,1.974,046,Scanner,R,1,2019_Sep_06_1543,SST,3.0.7,59.599474960203544,
go,sst_images/Right_Arrow.bmp,None,2,1107,None,0,31,31,31,,2,1,0.31234276499890257,go,0.10000000000000002,1.107,2.107,046,Scanner,R,1,2019_Sep_06_1543,SST,3.0.7,59.599474960203544,
go,sst_images/Right_Arrow.bmp,None,2,777,None,0,32,32,32,,2,1,0.736524707004719,go,0.10000000000000002,0.777,1.7770000000000001,046,Scanner,R,1,2019_Sep_06_1543,SST,3.0.7,59.599474960203544,
stop,sst_images/Right_Arrow.bmp,sst_images/Stop_Arrow.bmp,none,723,None,0,33,33,33,,None,1,,stop,0.15000000000000002,0.723,1.723,046,Scanner,R,1,2019_Sep_06_1543,SST,3.0.7,59.599474960203544,
go,sst_images/Left_Arrow.bmp,None,1,963,None,0,34,34,34,,1,1,0.3529104420013027,go,0.15000000000000002,0.963,1.963,046,Scanner,R,1,2019_Sep_06_1543,SST,3.0.7,59.599474960203544,
go,sst_images/Right_Arrow.bmp,None,2,1186,None,0,35,35,35,,2,1,0.3123370769972098,go,0.15000000000000002,1.186,2.186,046,Scanner,R,1,2019_Sep_06_1543,SST,3.0.7,59.599474960203544,
go,sst_images/Left_Arrow.bmp,None,1,793,None,0,36,36,36,,1,1,0.30313979299535276,go,0.15000000000000002,0.793,1.7930000000000001,046,Scanner,R,1,2019_Sep_06_1543,SST,3.0.7,59.599474960203544,
go,sst_images/Left_Arrow.bmp,None,1,1207,None,0,37,37,37,,1,1,0.4282420629970147,go,0.15000000000000002,1.207,2.207,046,Scanner,R,1,2019_Sep_06_1543,SST,3.0.7,59.599474960203544,
go,sst_images/Right_Arrow.bmp,None,2,800,None,0,38,38,38,,2,1,0.294045267997717,go,0.15000000000000002,0.8,1.8,046,Scanner,R,1,2019_Sep_06_1543,SST,3.0.7,59.599474960203544,
go,sst_images/Right_Arrow.bmp,None,2,1156,None,0,39,39,39,,2,1,0.4215254169976106,go,0.15000000000000002,1.156,2.1559999999999997,046,Scanner,R,1,2019_Sep_06_1543,SST,3.0.7,59.599474960203544,
stop,sst_images/Left_Arrow.bmp,sst_images/Stop_Arrow.bmp,none,1032,None,0,40,40,40,,1,0,0.3201325289992383,stop,0.10000000000000002,1.032,2.1618674710007615,046,Scanner,R,1,2019_Sep_06_1543,SST,3.0.7,59.599474960203544,
go,sst_images/Left_Arrow.bmp,None,1,1088,None,0,41,41,41,,2,0,0.3544512919979752,go,0.10000000000000002,1.088,2.088,046,Scanner,R,1,2019_Sep_06_1543,SST,3.0.7,59.599474960203544,
go,sst_images/Left_Arrow.bmp,None,1,922,None,0,42,42,42,,1,1,0.37938301199756097,go,0.10000000000000002,0.922,1.9220000000000002,046,Scanner,R,1,2019_Sep_06_1543,SST,3.0.7,59.599474960203544,
go,sst_images/Right_Arrow.bmp,None,2,733,None,0,43,43,43,,2,1,0.34383796300244285,go,0.10000000000000002,0.733,1.733,046,Scanner,R,1,2019_Sep_06_1543,SST,3.0.7,59.599474960203544,
stop,sst_images/Right_Arrow.bmp,sst_images/Stop_Arrow.bmp,none,717,None,0,44,44,44,,None,1,,stop,0.15000000000000002,0.717,1.717,046,Scanner,R,1,2019_Sep_06_1543,SST,3.0.7,59.599474960203544,
go,sst_images/Left_Arrow.bmp,None,1,870,None,0,45,45,45,,1,1,0.3698359070040169,go,0.15000000000000002,0.87,1.87,046,Scanner,R,1,2019_Sep_06_1543,SST,3.0.7,59.599474960203544,
go,sst_images/Left_Arrow.bmp,None,1,765,None,0,46,46,46,,1,1,0.33722703200328397,go,0.15000000000000002,0.765,1.7650000000000001,046,Scanner,R,1,2019_Sep_06_1543,SST,3.0.7,59.599474960203544,
go,sst_images/Right_Arrow.bmp,None,2,861,None,0,47,47,47,,2,1,0.3263566509995144,go,0.15000000000000002,0.861,1.861,046,Scanner,R,1,2019_Sep_06_1543,SST,3.0.7,59.599474960203544,
go,sst_images/Right_Arrow.bmp,None,2,772,None,0,48,48,48,,2,1,0.39499251800589263,go,0.15000000000000002,0.772,1.772,046,Scanner,R,1,2019_Sep_06_1543,SST,3.0.7,59.599474960203544,
go,sst_images/Right_Arrow.bmp,None,2,937,None,0,49,49,49,,2,1,0.3611989569981233,go,0.15000000000000002,0.937,1.937,046,Scanner,R,1,2019_Sep_06_1543,SST,3.0.7,59.599474960203544,
stop,sst_images/Left_Arrow.bmp,sst_images/Stop_Arrow.bmp,none,1296,None,0,50,50,50,,1,0,0.3449266579991672,stop,0.10000000000000002,1.296,2.4010733420008328,046,Scanner,R,1,2019_Sep_06_1543,SST,3.0.7,59.599474960203544,
go,sst_images/Left_Arrow.bmp,None,1,757,None,0,51,51,51,,1,1,0.4606112980036414,go,0.10000000000000002,0.757,1.7570000000000001,046,Scanner,R,1,2019_Sep_06_1543,SST,3.0.7,59.599474960203544,
go,sst_images/Left_Arrow.bmp,None,1,751,None,0,52,52,52,,1,1,0.7272072060004575,go,0.10000000000000002,0.751,1.751,046,Scanner,R,1,2019_Sep_06_1543,SST,3.0.7,59.599474960203544,
go,sst_images/Left_Arrow.bmp,None,1,900,None,0,53,53,53,,1,1,0.3774531789968023,go,0.10000000000000002,0.9,1.9,046,Scanner,R,1,2019_Sep_06_1543,SST,3.0.7,59.599474960203544,
go,sst_images/Right_Arrow.bmp,None,2,815,None,0,54,54,54,,2,1,0.36085358100535814,go,0.10000000000000002,0.815,1.815,046,Scanner,R,1,2019_Sep_06_1543,SST,3.0.7,59.599474960203544,
stop,sst_images/Right_Arrow.bmp,sst_images/Stop_Arrow.bmp,none,865,None,0,55,55,55,,None,1,,stop,0.15000000000000002,0.865,1.865,046,Scanner,R,1,2019_Sep_06_1543,SST,3.0.7,59.599474960203544,
go,sst_images/Right_Arrow.bmp,None,2,701,None,0,56,56,56,,2,1,0.42850602399994386,go,0.15000000000000002,0.701,1.701,046,Scanner,R,1,2019_Sep_06_1543,SST,3.0.7,59.599474960203544,
go,sst_images/Left_Arrow.bmp,None,1,963,None,0,57,57,57,,1,1,0.34331885400024476,go,0.15000000000000002,0.963,1.963,046,Scanner,R,1,2019_Sep_06_1543,SST,3.0.7,59.599474960203544,
go,sst_images/Left_Arrow.bmp,None,1,757,None,0,58,58,58,,1,1,0.4592428510004538,go,0.15000000000000002,0.757,1.7570000000000001,046,Scanner,R,1,2019_Sep_06_1543,SST,3.0.7,59.599474960203544,
go,sst_images/Left_Arrow.bmp,None,1,799,None,0,59,59,59,,1,1,0.3777313450045767,go,0.15000000000000002,0.799,1.799,046,Scanner,R,1,2019_Sep_06_1543,SST,3.0.7,59.599474960203544,
go,sst_images/Right_Arrow.bmp,None,2,862,None,0,60,60,60,,2,1,0.35916624999663327,go,0.15000000000000002,0.862,1.862,046,Scanner,R,1,2019_Sep_06_1543,SST,3.0.7,59.599474960203544,
stop,sst_images/Right_Arrow.bmp,sst_images/Stop_Arrow.bmp,none,1102,None,0,61,61,61,,2,0,0.3744097180024255,stop,0.10000000000000002,1.102,2.1775902819975745,046,Scanner,R,1,2019_Sep_06_1543,SST,3.0.7,59.599474960203544,
go,sst_images/Left_Arrow.bmp,None,1,704,None,0,62,62,62,,1,1,0.2717585809950833,go,0.10000000000000002,0.704,1.704,046,Scanner,R,1,2019_Sep_06_1543,SST,3.0.7,59.599474960203544,
go,sst_images/Left_Arrow.bmp,None,1,928,None,0,63,63,63,,1,1,0.35290846999851055,go,0.10000000000000002,0.928,1.928,046,Scanner,R,1,2019_Sep_06_1543,SST,3.0.7,59.599474960203544,
go,sst_images/Right_Arrow.bmp,None,2,1164,None,0,64,64,64,,2,1,0.324618777995056,go,0.10000000000000002,1.164,2.1639999999999997,046,Scanner,R,1,2019_Sep_06_1543,SST,3.0.7,59.599474960203544,
go,sst_images/Right_Arrow.bmp,None,2,746,None,0,65,65,65,,2,1,0.3440290090002236,go,0.10000000000000002,0.746,1.746,046,Scanner,R,1,2019_Sep_06_1543,SST,3.0.7,59.599474960203544,
go,sst_images/Left_Arrow.bmp,None,1,1003,None,0,66,66,66,,1,1,0.508960023005784,go,0.10000000000000002,1.003,2.003,046,Scanner,R,1,2019_Sep_06_1543,SST,3.0.7,59.599474960203544,
stop,sst_images/Left_Arrow.bmp,sst_images/Stop_Arrow.bmp,none,918,None,0,67,67,67,,1,0,0.32556523400126025,stop,0.05000000000000002,0.918,1.99243476599874,046,Scanner,R,1,2019_Sep_06_1543,SST,3.0.7,59.599474960203544,
go,sst_images/Right_Arrow.bmp,None,2,1036,None,0,68,68,68,,2,1,0.2917642579996027,go,0.05000000000000002,1.036,2.036,046,Scanner,R,1,2019_Sep_06_1543,SST,3.0.7,59.599474960203544,
go,sst_images/Left_Arrow.bmp,None,1,1122,None,0,69,69,69,,1,1,0.2561169050022727,go,0.05000000000000002,1.122,2.122,046,Scanner,R,1,2019_Sep_06_1543,SST,3.0.7,59.599474960203544,
go,sst_images/Right_Arrow.bmp,None,2,1296,None,0,70,70,70,,2,1,0.27367119699920295,go,0.05000000000000002,1.296,2.2960000000000003,046,Scanner,R,1,2019_Sep_06_1543,SST,3.0.7,59.599474960203544,
go,sst_images/Right_Arrow.bmp,None,2,1072,None,0,71,71,71,,1,0,0.12416536700038705,go,0.05000000000000002,1.072,2.072,046,Scanner,R,1,2019_Sep_06_1543,SST,3.0.7,59.599474960203544,
go,sst_images/Left_Arrow.bmp,None,1,844,None,0,72,72,72,,1,1,0.35707403699780116,go,0.05000000000000002,0.844,1.8439999999999999,046,Scanner,R,1,2019_Sep_06_1543,SST,3.0.7,59.599474960203544,
go,sst_images/Right_Arrow.bmp,None,2,935,None,0,73,73,73,,2,1,0.35970316100429045,go,0.05000000000000002,0.935,1.935,046,Scanner,R,1,2019_Sep_06_1543,SST,3.0.7,59.599474960203544,
go,sst_images/Left_Arrow.bmp,None,1,1079,None,0,74,74,74,,1,1,0.4090065670025069,go,0.05000000000000002,1.079,2.0789999999999997,046,Scanner,R,1,2019_Sep_06_1543,SST,3.0.7,59.599474960203544,
go,sst_images/Right_Arrow.bmp,None,2,1187,None,0,75,75,75,,2,1,0.37238254000112647,go,0.05000000000000002,1.187,2.1870000000000003,046,Scanner,R,1,2019_Sep_06_1543,SST,3.0.7,59.599474960203544,
go,sst_images/Left_Arrow.bmp,None,1,1200,None,0,76,76,76,,1,1,0.324913534001098,go,0.05000000000000002,1.2,2.2,046,Scanner,R,1,2019_Sep_06_1543,SST,3.0.7,59.599474960203544,
go,sst_images/Right_Arrow.bmp,None,2,746,None,0,77,77,77,,2,1,0.3254189779981971,go,0.05000000000000002,0.746,1.746,046,Scanner,R,1,2019_Sep_06_1543,SST,3.0.7,59.599474960203544,
go,sst_images/Right_Arrow.bmp,None,2,892,None,0,78,78,78,,2,1,0.4548735209973529,go,0.05000000000000002,0.892,1.892,046,Scanner,R,1,2019_Sep_06_1543,SST,3.0.7,59.599474960203544,
go,sst_images/Left_Arrow.bmp,None,1,858,None,0,79,79,79,,1,1,0.38650324700574856,go,0.05000000000000002,0.858,1.858,046,Scanner,R,1,2019_Sep_06_1543,SST,3.0.7,59.599474960203544,
stop,sst_images/Right_Arrow.bmp,sst_images/Stop_Arrow.bmp,none,895,None,0,80,80,80,,None,1,,stop,0.10000000000000002,0.895,1.895,046,Scanner,R,1,2019_Sep_06_1543,SST,3.0.7,59.599474960203544,
go,sst_images/Left_Arrow.bmp,None,1,740,None,0,81,81,81,,1,1,0.3712046879954869,go,0.10000000000000002,0.74,1.74,046,Scanner,R,1,2019_Sep_06_1543,SST,3.0.7,59.599474960203544,
go,sst_images/Right_Arrow.bmp,None,2,935,None,0,82,82,82,,2,1,0.49012822000076994,go,0.10000000000000002,0.935,1.935,046,Scanner,R,1,2019_Sep_06_1543,SST,3.0.7,59.599474960203544,
go,sst_images/Right_Arrow.bmp,None,2,1335,None,0,83,83,83,,2,1,0.38823849300388247,go,0.10000000000000002,1.335,2.335,046,Scanner,R,1,2019_Sep_06_1543,SST,3.0.7,59.599474960203544,
go,sst_images/Right_Arrow.bmp,None,2,919,None,0,84,84,84,,2,1,0.36897936899913475,go,0.10000000000000002,0.919,1.919,046,Scanner,R,1,2019_Sep_06_1543,SST,3.0.7,59.599474960203544,
go,sst_images/Left_Arrow.bmp,None,1,800,None,0,85,85,85,,1,1,0.5547409339997103,go,0.10000000000000002,0.8,1.8,046,Scanner,R,1,2019_Sep_06_1543,SST,3.0.7,59.599474960203544,
stop,sst_images/Right_Arrow.bmp,sst_images/Stop_Arrow.bmp,none,734,None,0,86,86,86,,None,1,,stop,0.15000000000000002,0.734,1.7340000000000002,046,Scanner,R,1,2019_Sep_06_1543,SST,3.0.7,59.599474960203544,
go,sst_images/Left_Arrow.bmp,None,1,714,None,0,87,87,87,,1,1,0.47165844900155207,go,0.15000000000000002,0.714,1.714,046,Scanner,R,1,2019_Sep_06_1543,SST,3.0.7,59.599474960203544,
go,sst_images/Right_Arrow.bmp,None,2,977,None,0,88,88,88,,2,1,0.3706219349987805,go,0.15000000000000002,0.977,1.9769999999999999,046,Scanner,R,1,2019_Sep_06_1543,SST,3.0.7,59.599474960203544,
go,sst_images/Left_Arrow.bmp,None,1,753,None,0,89,89,89,,1,1,0.33689932499692077,go,0.15000000000000002,0.753,1.7530000000000001,046,Scanner,R,1,2019_Sep_06_1543,SST,3.0.7,59.599474960203544,
go,sst_images/Right_Arrow.bmp,None,2,964,None,0,90,90,90,,2,1,0.35441118299786467,go,0.15000000000000002,0.964,1.964,046,Scanner,R,1,2019_Sep_06_1543,SST,3.0.7,59.599474960203544,
go,sst_images/Left_Arrow.bmp,None,1,1308,None,0,91,91,91,,1,1,0.3059016389961471,go,0.15000000000000002,1.308,2.308,046,Scanner,R,1,2019_Sep_06_1543,SST,3.0.7,59.599474960203544,
go,sst_images/Right_Arrow.bmp,None,2,812,None,0,92,92,92,,2,1,0.32390463200135855,go,0.15000000000000002,0.812,1.812,046,Scanner,R,1,2019_Sep_06_1543,SST,3.0.7,59.599474960203544,
go,sst_images/Left_Arrow.bmp,None,1,731,None,0,93,93,93,,1,1,0.4370611940030358,go,0.15000000000000002,0.731,1.7309999999999999,046,Scanner,R,1,2019_Sep_06_1543,SST,3.0.7,59.599474960203544,
go,sst_images/Left_Arrow.bmp,None,1,740,None,0,94,94,94,,1,1,0.48857536400464596,go,0.15000000000000002,0.74,1.74,046,Scanner,R,1,2019_Sep_06_1543,SST,3.0.7,59.599474960203544,
go,sst_images/Left_Arrow.bmp,None,1,979,None,0,95,95,95,,1,1,0.3713538259980851,go,0.15000000000000002,0.979,1.979,046,Scanner,R,1,2019_Sep_06_1543,SST,3.0.7,59.599474960203544,
go,sst_images/Right_Arrow.bmp,None,2,916,None,0,96,96,96,,2,1,0.37125775599997723,go,0.15000000000000002,0.916,1.916,046,Scanner,R,1,2019_Sep_06_1543,SST,3.0.7,59.599474960203544,
go,sst_images/Left_Arrow.bmp,None,1,1015,None,0,97,97,97,,1,1,0.3715265380014898,go,0.15000000000000002,1.015,2.0149999999999997,046,Scanner,R,1,2019_Sep_06_1543,SST,3.0.7,59.599474960203544,
go,sst_images/Right_Arrow.bmp,None,2,855,None,0,98,98,98,,2,1,0.3060123620016384,go,0.15000000000000002,0.855,1.855,046,Scanner,R,1,2019_Sep_06_1543,SST,3.0.7,59.599474960203544,
go,sst_images/Right_Arrow.bmp,None,2,802,None,0,99,99,99,,1,0,0.3858369569934439,go,0.15000000000000002,0.802,1.802,046,Scanner,R,1,2019_Sep_06_1543,SST,3.0.7,59.599474960203544,
go,sst_images/Left_Arrow.bmp,None,1,798,None,0,100,100,100,,1,1,0.3554728340022848,go,0.15000000000000002,0.798,1.798,046,Scanner,R,1,2019_Sep_06_1543,SST,3.0.7,59.599474960203544,
go,sst_images/Right_Arrow.bmp,None,2,961,None,0,101,101,101,,2,1,0.5202881419972982,go,0.15000000000000002,0.961,1.9609999999999999,046,Scanner,R,1,2019_Sep_06_1543,SST,3.0.7,59.599474960203544,
stop,sst_images/Left_Arrow.bmp,sst_images/Stop_Arrow.bmp,none,753,None,0,102,102,102,,1,0,0.3368535570043605,stop,0.10000000000000002,0.753,1.8661464429956396,046,Scanner,R,1,2019_Sep_06_1543,SST,3.0.7,59.599474960203544,
go,sst_images/Right_Arrow.bmp,None,2,1378,None,0,103,103,103,,2,1,0.3218503480020445,go,0.10000000000000002,1.378,2.378,046,Scanner,R,1,2019_Sep_06_1543,SST,3.0.7,59.599474960203544,
go,sst_images/Left_Arrow.bmp,None,1,723,None,0,104,104,104,,1,1,0.28876176600169856,go,0.10000000000000002,0.723,1.7229999999999999,046,Scanner,R,1,2019_Sep_06_1543,SST,3.0.7,59.599474960203544,
stop,sst_images/Left_Arrow.bmp,sst_images/Stop_Arrow.bmp,none,701,None,0,105,105,105,,None,1,,stop,0.15000000000000002,0.701,1.701,046,Scanner,R,1,2019_Sep_06_1543,SST,3.0.7,59.599474960203544,
go,sst_images/Left_Arrow.bmp,None,1,1378,None,0,106,106,106,,1,1,0.4371290670023882,go,0.15000000000000002,1.378,2.378,046,Scanner,R,1,2019_Sep_06_1543,SST,3.0.7,59.599474960203544,
go,sst_images/Right_Arrow.bmp,None,2,1670,None,0,107,107,107,,2,1,0.37180613500095205,go,0.15000000000000002,1.67,2.67,046,Scanner,R,1,2019_Sep_06_1543,SST,3.0.7,59.599474960203544,
go,sst_images/Right_Arrow.bmp,None,2,836,None,0,108,108,108,,2,1,0.42168612699606456,go,0.15000000000000002,0.836,1.8359999999999999,046,Scanner,R,1,2019_Sep_06_1543,SST,3.0.7,59.599474960203544,
go,sst_images/Left_Arrow.bmp,None,1,809,None,0,109,109,109,,1,1,0.43801248599629616,go,0.15000000000000002,0.809,1.8090000000000002,046,Scanner,R,1,2019_Sep_06_1543,SST,3.0.7,59.599474960203544,
go,sst_images/Right_Arrow.bmp,None,2,828,None,0,110,110,110,,2,1,0.42067700200277613,go,0.15000000000000002,0.828,1.8279999999999998,046,Scanner,R,1,2019_Sep_06_1543,SST,3.0.7,59.599474960203544,
go,sst_images/Left_Arrow.bmp,None,1,825,None,0,111,111,111,,1,1,0.36952294100046856,go,0.15000000000000002,0.825,1.825,046,Scanner,R,1,2019_Sep_06_1543,SST,3.0.7,59.599474960203544,
go,sst_images/Right_Arrow.bmp,None,2,735,None,0,112,112,112,,2,1,0.3864781989977928,go,0.15000000000000002,0.735,1.7349999999999999,046,Scanner,R,1,2019_Sep_06_1543,SST,3.0.7,59.599474960203544,
stop,sst_images/Right_Arrow.bmp,sst_images/Stop_Arrow.bmp,none,721,None,0,113,113,113,,None,1,,stop,0.2,0.721,1.7209999999999999,046,Scanner,R,1,2019_Sep_06_1543,SST,3.0.7,59.599474960203544,
go,sst_images/Left_Arrow.bmp,None,1,853,None,0,114,114,114,,1,1,0.38782689799700165,go,0.2,0.853,1.853,046,Scanner,R,1,2019_Sep_06_1543,SST,3.0.7,59.599474960203544,
go,sst_images/Right_Arrow.bmp,None,2,869,None,0,115,115,115,,2,1,0.2880888639992918,go,0.2,0.869,1.869,046,Scanner,R,1,2019_Sep_06_1543,SST,3.0.7,59.599474960203544,
stop,sst_images/Left_Arrow.bmp,sst_images/Stop_Arrow.bmp,none,1088,None,0,116,116,116,,1,0,0.35414655999920797,stop,0.15000000000000002,1.088,2.233853440000792,046,Scanner,R,1,2019_Sep_06_1543,SST,3.0.7,59.599474960203544,
go,sst_images/Left_Arrow.bmp,None,1,767,None,0,117,117,117,,2,0,0.33584186200459953,go,0.15000000000000002,0.767,1.767,046,Scanner,R,1,2019_Sep_06_1543,SST,3.0.7,59.599474960203544,
go,sst_images/Right_Arrow.bmp,None,2,724,None,0,118,118,118,,2,1,0.42080464900209336,go,0.15000000000000002,0.724,1.724,046,Scanner,R,1,2019_Sep_06_1543,SST,3.0.7,59.599474960203544,
go,sst_images/Left_Arrow.bmp,None,1,1377,None,0,119,119,119,,1,1,0.6033211300018593,go,0.15000000000000002,1.377,2.377,046,Scanner,R,1,2019_Sep_06_1543,SST,3.0.7,59.599474960203544,
go,sst_images/Right_Arrow.bmp,None,2,817,None,0,120,120,120,,2,1,0.367949615996622,go,0.15000000000000002,0.817,1.817,046,Scanner,R,1,2019_Sep_06_1543,SST,3.0.7,59.599474960203544,
stop,sst_images/Left_Arrow.bmp,sst_images/Stop_Arrow.bmp,none,1335,None,0,121,121,121,,None,1,,stop,0.2,1.335,2.3349999999999995,046,Scanner,R,1,2019_Sep_06_1543,SST,3.0.7,59.599474960203544,
go,sst_images/Left_Arrow.bmp,None,1,1260,None,0,122,122,122,,1,1,0.41947165400051745,go,0.2,1.26,2.26,046,Scanner,R,1,2019_Sep_06_1543,SST,3.0.7,59.599474960203544,
go,sst_images/Right_Arrow.bmp,None,2,935,None,0,123,123,123,,2,1,0.3548217600036878,go,0.2,0.935,1.935,046,Scanner,R,1,2019_Sep_06_1543,SST,3.0.7,59.599474960203544,
go,sst_images/Right_Arrow.bmp,None,2,989,None,0,124,124,124,,2,1,0.42051439200440655,go,0.2,0.989,1.9889999999999999,046,Scanner,R,1,2019_Sep_06_1543,SST,3.0.7,59.599474960203544,
go,sst_images/Left_Arrow.bmp,None,1,853,None,0,125,125,125,,1,1,0.40403664599580225,go,0.2,0.853,1.853,046,Scanner,R,1,2019_Sep_06_1543,SST,3.0.7,59.599474960203544,
stop,sst_images/Right_Arrow.bmp,sst_images/Stop_Arrow.bmp,none,763,None,0,126,126,126,,2,0,0.3540512929976103,stop,0.15000000000000002,0.763,1.9089487070023896,046,Scanner,R,1,2019_Sep_06_1543,SST,3.0.7,59.599474960203544,
go,sst_images/Left_Arrow.bmp,None,1,798,None,0,127,127,127,,1,1,0.5374215119954897,go,0.15000000000000002,0.798,1.798,046,Scanner,R,1,2019_Sep_06_1543,SST,3.0.7,59.599474960203544,
go,sst_images/Left_Arrow.bmp,None,1,719,None,0,128,128,128,,2,0,0.3358391920046415,go,0.15000000000000002,0.719,1.7189999999999999,046,Scanner,R,1,2019_Sep_06_1543,SST,3.0.7,59.599474960203544,
go,sst_images/Right_Arrow.bmp,None,2,763,None,0,129,129,129,,2,1,0.33545485400100006,go,0.15000000000000002,0.763,1.763,046,Scanner,R,1,2019_Sep_06_1543,SST,3.0.7,59.599474960203544,
go,sst_images/Left_Arrow.bmp,None,1,807,None,0,130,130,130,,1,1,0.28486860999692,go,0.15000000000000002,0.807,1.807,046,Scanner,R,1,2019_Sep_06_1543,SST,3.0.7,59.599474960203544,
go,sst_images/Left_Arrow.bmp,None,1,787,None,0,131,131,131,,1,1,0.4367069080035435,go,0.15000000000000002,0.787,1.787,046,Scanner,R,1,2019_Sep_06_1543,SST,3.0.7,59.599474960203544,
go,sst_images/Left_Arrow.bmp,None,1,998,None,0,132,132,132,,1,1,0.4046967590038548,go,0.15000000000000002,0.998,1.998,046,Scanner,R,1,2019_Sep_06_1543,SST,3.0.7,59.599474960203544,
stop,sst_images/Left_Arrow.bmp,sst_images/Stop_Arrow.bmp,none,821,None,0,133,133,133,,1,0,0.4172001530023408,stop,0.10000000000000002,0.821,1.8537998469976593,046,Scanner,R,1,2019_Sep_06_1543,SST,3.0.7,59.599474960203544,
go,sst_images/Right_Arrow.bmp,None,2,828,None,0,134,134,134,,2,1,0.3382741090026684,go,0.10000000000000002,0.828,1.8279999999999998,046,Scanner,R,1,2019_Sep_06_1543,SST,3.0.7,59.599474960203544,
go,sst_images/Left_Arrow.bmp,None,1,1151,None,0,135,135,135,,1,1,0.33510958399710944,go,0.10000000000000002,1.151,2.151,046,Scanner,R,1,2019_Sep_06_1543,SST,3.0.7,59.599474960203544,
go,sst_images/Left_Arrow.bmp,None,1,1240,None,0,136,136,136,,1,1,0.6379586740004015,go,0.10000000000000002,1.24,2.24,046,Scanner,R,1,2019_Sep_06_1543,SST,3.0.7,59.599474960203544,
stop,sst_images/Right_Arrow.bmp,sst_images/Stop_Arrow.bmp,none,755,None,0,137,137,137,,2,0,0.38593849999597296,stop,0.05000000000000002,0.755,1.769061500004027,046,Scanner,R,1,2019_Sep_06_1543,SST,3.0.7,59.599474960203544,
go,sst_images/Right_Arrow.bmp,None,2,756,None,0,138,138,138,,2,1,0.43680659099482,go,0.05000000000000002,0.756,1.756,046,Scanner,R,1,2019_Sep_06_1543,SST,3.0.7,59.599474960203544,
go,sst_images/Right_Arrow.bmp,None,2,717,None,0,139,139,139,,2,1,0.41941679600131465,go,0.05000000000000002,0.717,1.717,046,Scanner,R,1,2019_Sep_06_1543,SST,3.0.7,59.599474960203544,
go,sst_images/Left_Arrow.bmp,None,1,768,None,0,140,140,140,,1,1,0.40450853900256334,go,0.05000000000000002,0.768,1.768,046,Scanner,R,1,2019_Sep_06_1543,SST,3.0.7,59.599474960203544,
stop,sst_images/Right_Arrow.bmp,sst_images/Stop_Arrow.bmp,none,845,None,0,141,141,141,,2,0,0.35284511699865106,stop,1.3877787807814457e-17,0.845,1.842154883001349,046,Scanner,R,1,2019_Sep_06_1543,SST,3.0.7,59.599474960203544,
go,sst_images/Right_Arrow.bmp,None,2,802,None,0,142,142,142,,2,1,0.43588848199578933,go,1.3877787807814457e-17,0.802,1.802,046,Scanner,R,1,2019_Sep_06_1543,SST,3.0.7,59.599474960203544,
go,sst_images/Left_Arrow.bmp,None,1,755,None,0,143,143,143,,1,1,0.2871786950054229,go,1.3877787807814457e-17,0.755,1.755,046,Scanner,R,1,2019_Sep_06_1543,SST,3.0.7,59.599474960203544,
stop,sst_images/Left_Arrow.bmp,sst_images/Stop_Arrow.bmp,none,928,None,0,144,144,144,,None,1,,stop,0.05000000000000002,0.928,1.9280000000000002,046,Scanner,R,1,2019_Sep_06_1543,SST,3.0.7,59.599474960203544,
go,sst_images/Left_Arrow.bmp,None,1,918,None,0,145,145,145,,1,1,0.404181685000367,go,0.05000000000000002,0.918,1.9180000000000001,046,Scanner,R,1,2019_Sep_06_1543,SST,3.0.7,59.599474960203544,
go,sst_images/Right_Arrow.bmp,None,2,806,None,0,146,146,146,,2,1,0.32010308799362974,go,0.05000000000000002,0.806,1.806,046,Scanner,R,1,2019_Sep_06_1543,SST,3.0.7,59.599474960203544,
stop,sst_images/Left_Arrow.bmp,sst_images/Stop_Arrow.bmp,none,935,None,0,147,147,147,,None,1,,stop,0.10000000000000002,0.935,1.935,046,Scanner,R,1,2019_Sep_06_1543,SST,3.0.7,59.599474960203544,
go,sst_images/Left_Arrow.bmp,None,1,733,None,0,148,148,148,,1,1,0.41792865799652645,go,0.10000000000000002,0.733,1.733,046,Scanner,R,1,2019_Sep_06_1543,SST,3.0.7,59.599474960203544,
go,sst_images/Right_Arrow.bmp,None,2,866,None,0,149,149,149,,2,1,0.47144743600074435,go,0.10000000000000002,0.866,1.866,046,Scanner,R,1,2019_Sep_06_1543,SST,3.0.7,59.599474960203544,
go,sst_images/Left_Arrow.bmp,None,1,799,None,0,150,150,150,,1,1,0.40500465499644633,go,0.10000000000000002,0.799,1.799,046,Scanner,R,1,2019_Sep_06_1543,SST,3.0.7,59.599474960203544,
go,sst_images/Right_Arrow.bmp,None,2,777,None,0,151,151,151,,2,1,0.735884472996986,go,0.10000000000000002,0.777,1.7770000000000001,046,Scanner,R,1,2019_Sep_06_1543,SST,3.0.7,59.599474960203544,
go,sst_images/Right_Arrow.bmp,None,2,757,None,0,152,152,152,,2,1,0.4692206420004368,go,0.10000000000000002,0.757,1.7570000000000001,046,Scanner,R,1,2019_Sep_06_1543,SST,3.0.7,59.599474960203544,
go,sst_images/Left_Arrow.bmp,None,1,821,None,0,153,153,153,,1,1,0.3519410350054386,go,0.10000000000000002,0.821,1.821,046,Scanner,R,1,2019_Sep_06_1543,SST,3.0.7,59.599474960203544,
stop,sst_images/Left_Arrow.bmp,sst_images/Stop_Arrow.bmp,none,875,None,0,154,154,154,,None,1,,stop,0.15000000000000002,0.875,1.8750000000000002,046,Scanner,R,1,2019_Sep_06_1543,SST,3.0.7,59.599474960203544,
go,sst_images/Right_Arrow.bmp,None,2,798,None,0,155,155,155,,2,1,0.3524980429938296,go,0.15000000000000002,0.798,1.798,046,Scanner,R,1,2019_Sep_06_1543,SST,3.0.7,59.599474960203544,
go,sst_images/Left_Arrow.bmp,None,1,766,None,0,156,156,156,,1,1,0.33789968299970496,go,0.15000000000000002,0.766,1.766,046,Scanner,R,1,2019_Sep_06_1543,SST,3.0.7,59.599474960203544,
go,sst_images/Right_Arrow.bmp,None,2,1905,None,0,157,157,157,,2,1,0.34813753300113603,go,0.15000000000000002,1.905,2.9050000000000002,046,Scanner,R,1,2019_Sep_06_1543,SST,3.0.7,59.599474960203544,
go,sst_images/Left_Arrow.bmp,None,1,1028,None,0,158,158,158,,1,1,0.5046105750006973,go,0.15000000000000002,1.028,2.028,046,Scanner,R,1,2019_Sep_06_1543,SST,3.0.7,59.599474960203544,
go,sst_images/Right_Arrow.bmp,None,2,1093,None,0,159,159,159,,2,1,0.30321732300217263,go,0.15000000000000002,1.093,2.093,046,Scanner,R,1,2019_Sep_06_1543,SST,3.0.7,59.599474960203544,
go,sst_images/Left_Arrow.bmp,None,1,718,None,0,160,160,160,,1,1,0.2996515980048571,go,0.15000000000000002,0.718,1.718,046,Scanner,R,1,2019_Sep_06_1543,SST,3.0.7,59.599474960203544,
go,sst_images/Left_Arrow.bmp,None,1,934,None,0,161,161,161,,2,0,0.27016762400307925,go,0.15000000000000002,0.934,1.9340000000000002,046,Scanner,R,1,2019_Sep_06_1543,SST,3.0.7,59.599474960203544,
go,sst_images/Right_Arrow.bmp,None,2,926,None,0,162,162,162,,2,1,0.32832518799841637,go,0.15000000000000002,0.926,1.9260000000000002,046,Scanner,R,1,2019_Sep_06_1543,SST,3.0.7,59.599474960203544,
go,sst_images/Left_Arrow.bmp,None,1,802,None,0,163,163,163,,1,1,0.3027507539954968,go,0.15000000000000002,0.802,1.802,046,Scanner,R,1,2019_Sep_06_1543,SST,3.0.7,59.599474960203544,
stop,sst_images/Right_Arrow.bmp,sst_images/Stop_Arrow.bmp,none,763,None,0,164,164,164,,2,0,0.3700334440000006,stop,0.10000000000000002,0.763,1.8429665559999993,046,Scanner,R,1,2019_Sep_06_1543,SST,3.0.7,59.599474960203544,
go,sst_images/Right_Arrow.bmp,None,2,730,None,0,165,165,165,,1,0,0.42080956600693753,go,0.10000000000000002,0.73,1.73,046,Scanner,R,1,2019_Sep_06_1543,SST,3.0.7,59.599474960203544,
go,sst_images/Right_Arrow.bmp,None,2,773,None,0,166,166,166,,2,1,0.3866422200007946,go,0.10000000000000002,0.773,1.7730000000000001,046,Scanner,R,1,2019_Sep_06_1543,SST,3.0.7,59.599474960203544,
go,sst_images/Right_Arrow.bmp,None,2,727,None,0,167,167,167,,2,1,0.3362920130020939,go,0.10000000000000002,0.727,1.7269999999999999,046,Scanner,R,1,2019_Sep_06_1543,SST,3.0.7,59.599474960203544,
go,sst_images/Left_Arrow.bmp,None,1,879,None,0,168,168,168,,1,1,0.47218019199499395,go,0.10000000000000002,0.879,1.879,046,Scanner,R,1,2019_Sep_06_1543,SST,3.0.7,59.599474960203544,
go,sst_images/Right_Arrow.bmp,None,2,762,None,0,169,169,169,,2,1,0.35443289399700006,go,0.10000000000000002,0.762,1.762,046,Scanner,R,1,2019_Sep_06_1543,SST,3.0.7,59.599474960203544,
go,sst_images/Right_Arrow.bmp,None,2,727,None,0,170,170,170,,2,1,0.41990562100545503,go,0.10000000000000002,0.727,1.7269999999999999,046,Scanner,R,1,2019_Sep_06_1543,SST,3.0.7,59.599474960203544,
stop,sst_images/Left_Arrow.bmp,sst_images/Stop_Arrow.bmp,none,1240,None,0,171,171,171,,None,1,,stop,0.15000000000000002,1.24,2.2399999999999998,046,Scanner,R,1,2019_Sep_06_1543,SST,3.0.7,59.599474960203544,
go,sst_images/Left_Arrow.bmp,None,1,954,None,0,172,172,172,,1,1,0.3946457950005424,go,0.15000000000000002,0.954,1.954,046,Scanner,R,1,2019_Sep_06_1543,SST,3.0.7,59.599474960203544,
go,sst_images/Right_Arrow.bmp,None,2,779,None,0,173,173,173,,2,1,0.39636690100451233,go,0.15000000000000002,0.779,1.779,046,Scanner,R,1,2019_Sep_06_1543,SST,3.0.7,59.599474960203544,
go,sst_images/Right_Arrow.bmp,None,2,870,None,0,174,174,174,,2,1,0.4786642170001869,go,0.15000000000000002,0.87,1.87,046,Scanner,R,1,2019_Sep_06_1543,SST,3.0.7,59.599474960203544,
go,sst_images/Right_Arrow.bmp,None,2,978,None,0,175,175,175,,2,1,0.3610379180026939,go,0.15000000000000002,0.978,1.978,046,Scanner,R,1,2019_Sep_06_1543,SST,3.0.7,59.599474960203544,
go,sst_images/Left_Arrow.bmp,None,1,859,None,0,176,176,176,,1,1,0.31853481200232636,go,0.15000000000000002,0.859,1.859,046,Scanner,R,1,2019_Sep_06_1543,SST,3.0.7,59.599474960203544,
go,sst_images/Right_Arrow.bmp,None,2,728,None,0,177,177,177,,1,0,0.37693891599337803,go,0.15000000000000002,0.728,1.728,046,Scanner,R,1,2019_Sep_06_1543,SST,3.0.7,59.599474960203544,
go,sst_images/Left_Arrow.bmp,None,1,800,None,0,178,178,178,,1,1,0.39563431199349,go,0.15000000000000002,0.8,1.8,046,Scanner,R,1,2019_Sep_06_1543,SST,3.0.7,59.599474960203544,
go,sst_images/Right_Arrow.bmp,None,2,721,5648.0,0,179,179,179,,2,1,0.4012783399957698,go,0.15000000000000002,0.721,1.721,046,Scanner,R,1,2019_Sep_06_1543,SST,3.0.7,59.599474960203544,
