trial_type,arrow_1,arrow_2,corrAns,jitter,run_end_fixation,trials.thisRepN,trials.thisTrialN,trials.thisN,trials.thisIndex,randomized TrialOrder,key_response.keys,key_response.corr,key_response.rt,trial_t.routineEndVal,ss_delay,iti_duration,SOA,participant,prac_or_scan,handedness,run,date,expName,psychopyVersion,frameRate,Unnamed: 26,Unnamed: 8
go,sst_images/Left_Arrow.bmp,None,1,713.0,None,0.0,0.0,0.0,0.0,2.0,1,1.0,0.6959923949980293,go,0.05,0.713,1.713,1.0,Scanner,R,1.0,2019_Sep_06_1045,SST,3.0.7,60.03689807657106,,
stop,sst_images/Right_Arrow.bmp,sst_images/Stop_Arrow.bmp,none,767.0,None,0.0,1.0,1.0,1.0,,None,1.0,,stop,0.1,0.767,1.767,1.0,Scanner,R,1.0,2019_Sep_06_1045,SST,3.0.7,60.03689807657106,,
go,sst_images/Right_Arrow.bmp,None,2,928.0,None,0.0,2.0,2.0,2.0,,2,1.0,0.3867304910017992,go,0.1,0.9279999999999999,1.9280000000000002,1.0,Scanner,R,1.0,2019_Sep_06_1045,SST,3.0.7,60.03689807657106,,
go,sst_images/Right_Arrow.bmp,None,2,735.0,None,0.0,3.0,3.0,3.0,,2,1.0,0.4543734319995565,go,0.1,0.735,1.735,1.0,Scanner,R,1.0,2019_Sep_06_1045,SST,3.0.7,60.03689807657106,,
go,sst_images/Left_Arrow.bmp,None,1,1380.0,None,0.0,4.0,4.0,4.0,,1,1.0,0.4679936829998042,go,0.1,1.38,2.38,1.0,Scanner,R,1.0,2019_Sep_06_1045,SST,3.0.7,60.03689807657106,,
go,sst_images/Left_Arrow.bmp,None,1,769.0,None,0.0,5.0,5.0,5.0,,1,1.0,0.5210780400011572,go,0.1,0.769,1.769,1.0,Scanner,R,1.0,2019_Sep_06_1045,SST,3.0.7,60.03689807657106,,
stop,sst_images/Left_Arrow.bmp,sst_images/Stop_Arrow.bmp,none,884.0,None,0.0,6.0,6.0,6.0,,None,1.0,,stop,0.15000000000000002,0.884,1.884,1.0,Scanner,R,1.0,2019_Sep_06_1045,SST,3.0.7,60.03689807657106,,
go,sst_images/Right_Arrow.bmp,None,2,732.0,None,0.0,7.0,7.0,7.0,,2,1.0,0.43786190999890096,go,0.15000000000000002,0.732,1.732,1.0,Scanner,R,1.0,2019_Sep_06_1045,SST,3.0.7,60.03689807657106,,
go,sst_images/Left_Arrow.bmp,None,1,847.0,None,0.0,8.0,8.0,8.0,,1,1.0,0.5036571630007529,go,0.15000000000000002,0.847,1.847,1.0,Scanner,R,1.0,2019_Sep_06_1045,SST,3.0.7,60.03689807657106,,
stop,sst_images/Left_Arrow.bmp,sst_images/Stop_Arrow.bmp,none,1278.0,None,0.0,9.0,9.0,9.0,,None,1.0,,stop,0.2,1.278,2.278,1.0,Scanner,R,1.0,2019_Sep_06_1045,SST,3.0.7,60.03689807657106,,
go,sst_images/Right_Arrow.bmp,None,2,701.0,None,0.0,10.0,10.0,10.0,,2,1.0,0.4204268380017311,go,0.2,0.701,1.7009999999999998,1.0,Scanner,R,1.0,2019_Sep_06_1045,SST,3.0.7,60.03689807657106,,
go,sst_images/Right_Arrow.bmp,None,2,1480.0,None,0.0,11.0,11.0,11.0,,1,0.0,0.4065576860011788,go,0.2,1.48,2.48,1.0,Scanner,R,1.0,2019_Sep_06_1045,SST,3.0.7,60.03689807657106,,
go,sst_images/Left_Arrow.bmp,None,1,935.0,None,0.0,12.0,12.0,12.0,,1,1.0,0.4471093829997699,go,0.2,0.935,1.935,1.0,Scanner,R,1.0,2019_Sep_06_1045,SST,3.0.7,60.03689807657106,,
go,sst_images/Right_Arrow.bmp,None,2,1533.0,None,0.0,13.0,13.0,13.0,,2,1.0,0.5354711149993818,go,0.2,1.5330000000000001,2.533,1.0,Scanner,R,1.0,2019_Sep_06_1045,SST,3.0.7,60.03689807657106,,
go,sst_images/Left_Arrow.bmp,None,1,747.0,None,0.0,14.0,14.0,14.0,,1,1.0,0.4192977319980855,go,0.2,0.747,1.747,1.0,Scanner,R,1.0,2019_Sep_06_1045,SST,3.0.7,60.03689807657106,,
go,sst_images/Left_Arrow.bmp,None,1,1758.0,None,0.0,15.0,15.0,15.0,,1,1.0,0.5611542990009184,go,0.2,1.758,2.758,1.0,Scanner,R,1.0,2019_Sep_06_1045,SST,3.0.7,60.03689807657106,,
go,sst_images/Left_Arrow.bmp,None,1,818.0,None,0.0,16.0,16.0,16.0,,1,1.0,0.5690291380014969,go,0.2,0.818,1.818,1.0,Scanner,R,1.0,2019_Sep_06_1045,SST,3.0.7,60.03689807657106,,
go,sst_images/Right_Arrow.bmp,None,2,833.0,None,0.0,17.0,17.0,17.0,,2,1.0,0.4934112019982422,go,0.2,0.833,1.8330000000000002,1.0,Scanner,R,1.0,2019_Sep_06_1045,SST,3.0.7,60.03689807657106,,
stop,sst_images/Right_Arrow.bmp,sst_images/Stop_Arrow.bmp,none,1248.0,None,0.0,18.0,18.0,18.0,,None,1.0,,stop,0.25,1.248,2.248,1.0,Scanner,R,1.0,2019_Sep_06_1045,SST,3.0.7,60.03689807657106,,
go,sst_images/Left_Arrow.bmp,None,1,1081.0,None,0.0,19.0,19.0,19.0,,1,1.0,0.4615315080009168,go,0.25,1.081,2.081,1.0,Scanner,R,1.0,2019_Sep_06_1045,SST,3.0.7,60.03689807657106,,
go,sst_images/Left_Arrow.bmp,None,1,872.0,None,0.0,20.0,20.0,20.0,,1,1.0,0.6032157020017621,go,0.25,0.872,1.872,1.0,Scanner,R,1.0,2019_Sep_06_1045,SST,3.0.7,60.03689807657106,,
go,sst_images/Right_Arrow.bmp,None,2,820.0,None,0.0,21.0,21.0,21.0,,2,1.0,0.4599664560009842,go,0.25,0.82,1.82,1.0,Scanner,R,1.0,2019_Sep_06_1045,SST,3.0.7,60.03689807657106,,
go,sst_images/Left_Arrow.bmp,None,1,702.0,None,0.0,22.0,22.0,22.0,,1,1.0,0.4123524610004097,go,0.25,0.7020000000000001,1.702,1.0,Scanner,R,1.0,2019_Sep_06_1045,SST,3.0.7,60.03689807657106,,
go,sst_images/Right_Arrow.bmp,None,2,833.0,None,0.0,23.0,23.0,23.0,,2,1.0,0.4120979819999775,go,0.25,0.833,1.8330000000000002,1.0,Scanner,R,1.0,2019_Sep_06_1045,SST,3.0.7,60.03689807657106,,
go,sst_images/Left_Arrow.bmp,None,1,795.0,None,0.0,24.0,24.0,24.0,,1,1.0,0.3695585069981462,go,0.25,0.795,1.795,1.0,Scanner,R,1.0,2019_Sep_06_1045,SST,3.0.7,60.03689807657106,,
go,sst_images/Right_Arrow.bmp,None,2,846.0,None,0.0,25.0,25.0,25.0,,2,1.0,0.3777627630006464,go,0.25,0.846,1.8459999999999999,1.0,Scanner,R,1.0,2019_Sep_06_1045,SST,3.0.7,60.03689807657106,,
go,sst_images/Right_Arrow.bmp,None,2,707.0,None,0.0,26.0,26.0,26.0,,2,1.0,0.6265350169996964,go,0.25,0.7070000000000001,1.707,1.0,Scanner,R,1.0,2019_Sep_06_1045,SST,3.0.7,60.03689807657106,,
go,sst_images/Left_Arrow.bmp,None,1,811.0,None,0.0,27.0,27.0,27.0,,1,1.0,0.6125560090004001,go,0.25,0.8109999999999999,1.811,1.0,Scanner,R,1.0,2019_Sep_06_1045,SST,3.0.7,60.03689807657106,,
stop,sst_images/Right_Arrow.bmp,sst_images/Stop_Arrow.bmp,none,1022.0,None,0.0,28.0,28.0,28.0,,2,0.0,0.4366744860017207,stop,0.2,1.022,2.1353255139982794,1.0,Scanner,R,1.0,2019_Sep_06_1045,SST,3.0.7,60.03689807657106,,
go,sst_images/Right_Arrow.bmp,None,2,804.0,None,0.0,29.0,29.0,29.0,,2,1.0,0.42109952400278416,go,0.2,0.804,1.804,1.0,Scanner,R,1.0,2019_Sep_06_1045,SST,3.0.7,60.03689807657106,,
go,sst_images/Right_Arrow.bmp,None,2,741.0,None,0.0,30.0,30.0,30.0,,2,1.0,0.4769763170006627,go,0.2,0.741,1.7409999999999999,1.0,Scanner,R,1.0,2019_Sep_06_1045,SST,3.0.7,60.03689807657106,,
go,sst_images/Left_Arrow.bmp,None,1,889.0,None,0.0,31.0,31.0,31.0,,1,1.0,0.374283794000803,go,0.2,0.889,1.889,1.0,Scanner,R,1.0,2019_Sep_06_1045,SST,3.0.7,60.03689807657106,,
stop,sst_images/Left_Arrow.bmp,sst_images/Stop_Arrow.bmp,none,765.0,None,0.0,32.0,32.0,32.0,,None,1.0,,stop,0.25,0.765,1.765,1.0,Scanner,R,1.0,2019_Sep_06_1045,SST,3.0.7,60.03689807657106,,
go,sst_images/Right_Arrow.bmp,None,2,1191.0,None,0.0,33.0,33.0,33.0,,2,1.0,0.4435471479991975,go,0.25,1.1909999999999998,2.191,1.0,Scanner,R,1.0,2019_Sep_06_1045,SST,3.0.7,60.03689807657106,,
go,sst_images/Left_Arrow.bmp,None,1,1158.0,None,0.0,34.0,34.0,34.0,,1,1.0,0.3767331449998892,go,0.25,1.158,2.158,1.0,Scanner,R,1.0,2019_Sep_06_1045,SST,3.0.7,60.03689807657106,,
stop,sst_images/Right_Arrow.bmp,sst_images/Stop_Arrow.bmp,none,847.0,None,0.0,35.0,35.0,35.0,,2,0.0,0.4087421670010372,stop,0.2,0.847,1.9882578329989629,1.0,Scanner,R,1.0,2019_Sep_06_1045,SST,3.0.7,60.03689807657106,,
go,sst_images/Left_Arrow.bmp,None,1,1121.0,None,0.0,36.0,36.0,36.0,,1,1.0,0.7103275000008579,go,0.2,1.121,2.121,1.0,Scanner,R,1.0,2019_Sep_06_1045,SST,3.0.7,60.03689807657106,,
stop,sst_images/Right_Arrow.bmp,sst_images/Stop_Arrow.bmp,none,1008.0,None,0.0,37.0,37.0,37.0,,2,0.0,0.45459676199971005,stop,0.15000000000000002,1.008,2.05340323800029,1.0,Scanner,R,1.0,2019_Sep_06_1045,SST,3.0.7,60.03689807657106,,
go,sst_images/Right_Arrow.bmp,None,2,728.0,None,0.0,38.0,38.0,38.0,,2,1.0,0.7272391710030206,go,0.15000000000000002,0.728,1.7280000000000002,1.0,Scanner,R,1.0,2019_Sep_06_1045,SST,3.0.7,60.03689807657106,,
go,sst_images/Right_Arrow.bmp,None,2,812.0,None,0.0,39.0,39.0,39.0,,2,1.0,0.6060778690007282,go,0.15000000000000002,0.812,1.8119999999999998,1.0,Scanner,R,1.0,2019_Sep_06_1045,SST,3.0.7,60.03689807657106,,
go,sst_images/Left_Arrow.bmp,None,1,836.0,None,0.0,40.0,40.0,40.0,,1,1.0,0.6426441309995425,go,0.15000000000000002,0.836,1.836,1.0,Scanner,R,1.0,2019_Sep_06_1045,SST,3.0.7,60.03689807657106,,
go,sst_images/Left_Arrow.bmp,None,1,894.0,None,0.0,41.0,41.0,41.0,,1,1.0,0.6930307309994532,go,0.15000000000000002,0.894,1.894,1.0,Scanner,R,1.0,2019_Sep_06_1045,SST,3.0.7,60.03689807657106,,
stop,sst_images/Left_Arrow.bmp,sst_images/Stop_Arrow.bmp,none,714.0,None,0.0,42.0,42.0,42.0,,None,1.0,,stop,0.2,0.7140000000000001,1.7139999999999995,1.0,Scanner,R,1.0,2019_Sep_06_1045,SST,3.0.7,60.03689807657106,,
go,sst_images/Right_Arrow.bmp,None,2,719.0,None,0.0,43.0,43.0,43.0,,2,1.0,0.4104622259983444,go,0.2,0.7190000000000001,1.719,1.0,Scanner,R,1.0,2019_Sep_06_1045,SST,3.0.7,60.03689807657106,,
go,sst_images/Left_Arrow.bmp,None,1,707.0,None,0.0,44.0,44.0,44.0,,1,1.0,0.5594742660032352,go,0.2,0.7070000000000001,1.707,1.0,Scanner,R,1.0,2019_Sep_06_1045,SST,3.0.7,60.03689807657106,,
go,sst_images/Left_Arrow.bmp,None,1,787.0,None,0.0,45.0,45.0,45.0,,1,1.0,0.6417960959988704,go,0.2,0.787,1.787,1.0,Scanner,R,1.0,2019_Sep_06_1045,SST,3.0.7,60.03689807657106,,
stop,sst_images/Right_Arrow.bmp,sst_images/Stop_Arrow.bmp,none,767.0,None,0.0,46.0,46.0,46.0,,None,1.0,,stop,0.25,0.767,1.767,1.0,Scanner,R,1.0,2019_Sep_06_1045,SST,3.0.7,60.03689807657106,,
go,sst_images/Right_Arrow.bmp,None,2,783.0,None,0.0,47.0,47.0,47.0,,2,1.0,0.4595018940017326,go,0.25,0.7829999999999999,1.7830000000000001,1.0,Scanner,R,1.0,2019_Sep_06_1045,SST,3.0.7,60.03689807657106,,
go,sst_images/Right_Arrow.bmp,None,2,743.0,None,0.0,48.0,48.0,48.0,,2,1.0,0.4261475530001917,go,0.25,0.743,1.743,1.0,Scanner,R,1.0,2019_Sep_06_1045,SST,3.0.7,60.03689807657106,,
go,sst_images/Right_Arrow.bmp,None,2,752.0,None,0.0,49.0,49.0,49.0,,2,1.0,0.441848309001216,go,0.25,0.752,1.7519999999999998,1.0,Scanner,R,1.0,2019_Sep_06_1045,SST,3.0.7,60.03689807657106,,
stop,sst_images/Left_Arrow.bmp,sst_images/Stop_Arrow.bmp,none,1219.0,None,0.0,50.0,50.0,50.0,,1,0.0,0.45737358300175396,stop,0.2,1.219,2.311626416998246,1.0,Scanner,R,1.0,2019_Sep_06_1045,SST,3.0.7,60.03689807657106,,
go,sst_images/Left_Arrow.bmp,None,1,1510.0,None,0.0,51.0,51.0,51.0,,1,1.0,0.6580755079994561,go,0.2,1.51,2.51,1.0,Scanner,R,1.0,2019_Sep_06_1045,SST,3.0.7,60.03689807657106,,
go,sst_images/Left_Arrow.bmp,None,1,1441.0,None,0.0,52.0,52.0,52.0,,1,1.0,0.7590977740001108,go,0.2,1.4409999999999998,2.441,1.0,Scanner,R,1.0,2019_Sep_06_1045,SST,3.0.7,60.03689807657106,,
go,sst_images/Left_Arrow.bmp,None,1,774.0,None,0.0,53.0,53.0,53.0,,1,1.0,0.5552344850002555,go,0.2,0.774,1.774,1.0,Scanner,R,1.0,2019_Sep_06_1045,SST,3.0.7,60.03689807657106,,
go,sst_images/Right_Arrow.bmp,None,2,1033.0,None,0.0,54.0,54.0,54.0,,2,1.0,0.9718687770000544,go,0.2,1.033,2.033,1.0,Scanner,R,1.0,2019_Sep_06_1045,SST,3.0.7,60.03689807657106,,
stop,sst_images/Right_Arrow.bmp,sst_images/Stop_Arrow.bmp,none,868.0,None,0.0,55.0,55.0,55.0,,None,1.0,,stop,0.25,0.868,1.868,1.0,Scanner,R,1.0,2019_Sep_06_1045,SST,3.0.7,60.03689807657106,,
go,sst_images/Right_Arrow.bmp,None,2,836.0,None,0.0,56.0,56.0,56.0,,2,1.0,0.5367588310000428,go,0.25,0.836,1.836,1.0,Scanner,R,1.0,2019_Sep_06_1045,SST,3.0.7,60.03689807657106,,
go,sst_images/Left_Arrow.bmp,None,1,713.0,None,0.0,57.0,57.0,57.0,,1,1.0,0.4678163839998888,go,0.25,0.713,1.713,1.0,Scanner,R,1.0,2019_Sep_06_1045,SST,3.0.7,60.03689807657106,,
go,sst_images/Left_Arrow.bmp,None,1,707.0,None,0.0,58.0,58.0,58.0,,1,1.0,0.5240150850004284,go,0.25,0.7070000000000001,1.707,1.0,Scanner,R,1.0,2019_Sep_06_1045,SST,3.0.7,60.03689807657106,,
go,sst_images/Left_Arrow.bmp,None,1,878.0,None,0.0,59.0,59.0,59.0,,1,1.0,0.6870795750000981,go,0.25,0.878,1.878,1.0,Scanner,R,1.0,2019_Sep_06_1045,SST,3.0.7,60.03689807657106,,
go,sst_images/Right_Arrow.bmp,None,2,851.0,None,0.0,60.0,60.0,60.0,,2,1.0,0.6195282769986079,go,0.25,0.851,1.851,1.0,Scanner,R,1.0,2019_Sep_06_1045,SST,3.0.7,60.03689807657106,,
go,sst_images/Left_Arrow.bmp,None,1,1008.0,None,0.0,61.0,61.0,61.0,,1,1.0,0.7214959019984235,go,0.25,1.008,2.008,1.0,Scanner,R,1.0,2019_Sep_06_1045,SST,3.0.7,60.03689807657106,,
go,sst_images/Left_Arrow.bmp,None,1,1763.0,None,0.0,62.0,62.0,62.0,,1,1.0,0.5045170739977038,go,0.25,1.7630000000000001,2.763,1.0,Scanner,R,1.0,2019_Sep_06_1045,SST,3.0.7,60.03689807657106,,
go,sst_images/Right_Arrow.bmp,None,2,714.0,None,0.0,63.0,63.0,63.0,,2,1.0,0.5212794100007159,go,0.25,0.7140000000000001,1.714,1.0,Scanner,R,1.0,2019_Sep_06_1045,SST,3.0.7,60.03689807657106,,
go,sst_images/Right_Arrow.bmp,None,2,1009.0,None,0.0,64.0,64.0,64.0,,2,1.0,0.8509619230026146,go,0.25,1.0090000000000001,2.009,1.0,Scanner,R,1.0,2019_Sep_06_1045,SST,3.0.7,60.03689807657106,,
go,sst_images/Left_Arrow.bmp,None,1,1274.0,None,0.0,65.0,65.0,65.0,,1,1.0,0.5203632229968207,go,0.25,1.274,2.274,1.0,Scanner,R,1.0,2019_Sep_06_1045,SST,3.0.7,60.03689807657106,,
stop,sst_images/Right_Arrow.bmp,sst_images/Stop_Arrow.bmp,none,787.0,None,0.0,66.0,66.0,66.0,,2,0.0,0.5040770800005703,stop,0.2,0.787,1.8329229199994297,1.0,Scanner,R,1.0,2019_Sep_06_1045,SST,3.0.7,60.03689807657106,,
go,sst_images/Right_Arrow.bmp,None,2,1357.0,None,0.0,67.0,67.0,67.0,,2,1.0,0.4729911430003994,go,0.2,1.357,2.3569999999999998,1.0,Scanner,R,1.0,2019_Sep_06_1045,SST,3.0.7,60.03689807657106,,
go,sst_images/Left_Arrow.bmp,None,1,707.0,None,0.0,68.0,68.0,68.0,,1,1.0,0.5366827780017047,go,0.2,0.7070000000000001,1.707,1.0,Scanner,R,1.0,2019_Sep_06_1045,SST,3.0.7,60.03689807657106,,
go,sst_images/Right_Arrow.bmp,None,2,735.0,None,0.0,69.0,69.0,69.0,,2,1.0,0.9566046869986168,go,0.2,0.735,1.735,1.0,Scanner,R,1.0,2019_Sep_06_1045,SST,3.0.7,60.03689807657106,,
stop,sst_images/Left_Arrow.bmp,sst_images/Stop_Arrow.bmp,none,707.0,None,0.0,70.0,70.0,70.0,,None,1.0,,stop,0.25,0.7070000000000001,1.707,1.0,Scanner,R,1.0,2019_Sep_06_1045,SST,3.0.7,60.03689807657106,,
go,sst_images/Right_Arrow.bmp,None,2,796.0,None,0.0,71.0,71.0,71.0,,2,1.0,0.4888762640002824,go,0.25,0.7959999999999999,1.796,1.0,Scanner,R,1.0,2019_Sep_06_1045,SST,3.0.7,60.03689807657106,,
go,sst_images/Left_Arrow.bmp,None,1,798.0,None,0.0,72.0,72.0,72.0,,1,1.0,0.5396242799979518,go,0.25,0.7979999999999999,1.798,1.0,Scanner,R,1.0,2019_Sep_06_1045,SST,3.0.7,60.03689807657106,,
go,sst_images/Right_Arrow.bmp,None,2,705.0,None,0.0,73.0,73.0,73.0,,2,1.0,0.7061220270006743,go,0.25,0.705,1.705,1.0,Scanner,R,1.0,2019_Sep_06_1045,SST,3.0.7,60.03689807657106,,
go,sst_images/Left_Arrow.bmp,None,1,802.0,None,0.0,74.0,74.0,74.0,,1,1.0,0.7056207429995993,go,0.25,0.802,1.8019999999999998,1.0,Scanner,R,1.0,2019_Sep_06_1045,SST,3.0.7,60.03689807657106,,
stop,sst_images/Right_Arrow.bmp,sst_images/Stop_Arrow.bmp,none,1871.0,None,0.0,75.0,75.0,75.0,,2,0.0,0.4557024210007512,stop,0.2,1.871,2.9652975789992486,1.0,Scanner,R,1.0,2019_Sep_06_1045,SST,3.0.7,60.03689807657106,,
go,sst_images/Right_Arrow.bmp,None,2,912.0,None,0.0,76.0,76.0,76.0,,2,1.0,0.7689276089986379,go,0.2,0.912,1.912,1.0,Scanner,R,1.0,2019_Sep_06_1045,SST,3.0.7,60.03689807657106,,
go,sst_images/Left_Arrow.bmp,None,1,752.0,None,0.0,77.0,77.0,77.0,,1,1.0,0.4044017230007739,go,0.2,0.752,1.7519999999999998,1.0,Scanner,R,1.0,2019_Sep_06_1045,SST,3.0.7,60.03689807657106,,
go,sst_images/Right_Arrow.bmp,None,2,868.0,None,0.0,78.0,78.0,78.0,,2,1.0,0.7059348709990445,go,0.2,0.868,1.868,1.0,Scanner,R,1.0,2019_Sep_06_1045,SST,3.0.7,60.03689807657106,,
stop,sst_images/Right_Arrow.bmp,sst_images/Stop_Arrow.bmp,none,719.0,None,0.0,79.0,79.0,79.0,,None,1.0,,stop,0.25,0.7190000000000001,1.719,1.0,Scanner,R,1.0,2019_Sep_06_1045,SST,3.0.7,60.03689807657106,,
go,sst_images/Right_Arrow.bmp,None,2,789.0,None,0.0,80.0,80.0,80.0,,2,1.0,0.7377454990019032,go,0.25,0.789,1.789,1.0,Scanner,R,1.0,2019_Sep_06_1045,SST,3.0.7,60.03689807657106,,
go,sst_images/Left_Arrow.bmp,None,1,745.0,None,0.0,81.0,81.0,81.0,,1,1.0,0.5726091020005697,go,0.25,0.745,1.745,1.0,Scanner,R,1.0,2019_Sep_06_1045,SST,3.0.7,60.03689807657106,,
go,sst_images/Left_Arrow.bmp,None,1,796.0,None,0.0,82.0,82.0,82.0,,1,1.0,0.8218748850013071,go,0.25,0.7959999999999999,1.796,1.0,Scanner,R,1.0,2019_Sep_06_1045,SST,3.0.7,60.03689807657106,,
go,sst_images/Right_Arrow.bmp,None,2,1025.0,None,0.0,83.0,83.0,83.0,,2,1.0,0.5364359820014215,go,0.25,1.025,2.025,1.0,Scanner,R,1.0,2019_Sep_06_1045,SST,3.0.7,60.03689807657106,,
stop,sst_images/Left_Arrow.bmp,sst_images/Stop_Arrow.bmp,none,737.0,None,0.0,84.0,84.0,84.0,,None,1.0,,stop,0.3,0.737,1.737,1.0,Scanner,R,1.0,2019_Sep_06_1045,SST,3.0.7,60.03689807657106,,
go,sst_images/Right_Arrow.bmp,None,2,915.0,None,0.0,85.0,85.0,85.0,,2,1.0,0.5028445809984987,go,0.3,0.915,1.915,1.0,Scanner,R,1.0,2019_Sep_06_1045,SST,3.0.7,60.03689807657106,,
go,sst_images/Right_Arrow.bmp,None,2,882.0,None,0.0,86.0,86.0,86.0,,2,1.0,0.6709801299984974,go,0.3,0.882,1.882,1.0,Scanner,R,1.0,2019_Sep_06_1045,SST,3.0.7,60.03689807657106,,
go,sst_images/Left_Arrow.bmp,None,1,704.0,None,0.0,87.0,87.0,87.0,,1,1.0,0.6870226760001971,go,0.3,0.7040000000000001,1.704,1.0,Scanner,R,1.0,2019_Sep_06_1045,SST,3.0.7,60.03689807657106,,
stop,sst_images/Left_Arrow.bmp,sst_images/Stop_Arrow.bmp,none,707.0,None,0.0,88.0,88.0,88.0,,None,1.0,,stop,0.35,0.7070000000000001,1.7069999999999999,1.0,Scanner,R,1.0,2019_Sep_06_1045,SST,3.0.7,60.03689807657106,,
go,sst_images/Left_Arrow.bmp,None,1,1357.0,None,0.0,89.0,89.0,89.0,,1,1.0,0.8213097219995689,go,0.35,1.357,2.3569999999999998,1.0,Scanner,R,1.0,2019_Sep_06_1045,SST,3.0.7,60.03689807657106,,
go,sst_images/Right_Arrow.bmp,None,2,740.0,None,0.0,90.0,90.0,90.0,,2,1.0,0.5207454429983045,go,0.35,0.74,1.74,1.0,Scanner,R,1.0,2019_Sep_06_1045,SST,3.0.7,60.03689807657106,,
go,sst_images/Left_Arrow.bmp,None,1,1198.0,None,0.0,91.0,91.0,91.0,,1,1.0,0.7381322389992421,go,0.35,1.198,2.198,1.0,Scanner,R,1.0,2019_Sep_06_1045,SST,3.0.7,60.03689807657106,,
go,sst_images/Right_Arrow.bmp,None,2,1899.0,None,0.0,92.0,92.0,92.0,,2,1.0,0.5047349870001199,go,0.35,1.899,2.8989999999999996,1.0,Scanner,R,1.0,2019_Sep_06_1045,SST,3.0.7,60.03689807657106,,
go,sst_images/Left_Arrow.bmp,None,1,1871.0,None,0.0,93.0,93.0,93.0,,1,1.0,0.537310747000447,go,0.35,1.871,2.8710000000000004,1.0,Scanner,R,1.0,2019_Sep_06_1045,SST,3.0.7,60.03689807657106,,
go,sst_images/Right_Arrow.bmp,None,2,1095.0,None,0.0,94.0,94.0,94.0,,2,1.0,0.4706974779983284,go,0.35,1.095,2.095,1.0,Scanner,R,1.0,2019_Sep_06_1045,SST,3.0.7,60.03689807657106,,
go,sst_images/Left_Arrow.bmp,None,1,790.0,None,0.0,95.0,95.0,95.0,,1,1.0,0.4544650209973042,go,0.35,0.79,1.79,1.0,Scanner,R,1.0,2019_Sep_06_1045,SST,3.0.7,60.03689807657106,,
go,sst_images/Left_Arrow.bmp,None,1,1633.0,None,0.0,96.0,96.0,96.0,,1,1.0,0.6541355970002769,go,0.35,1.633,2.633,1.0,Scanner,R,1.0,2019_Sep_06_1045,SST,3.0.7,60.03689807657106,,
go,sst_images/Left_Arrow.bmp,None,1,791.0,None,0.0,97.0,97.0,97.0,,1,1.0,0.7854821290020482,go,0.35,0.7909999999999999,1.791,1.0,Scanner,R,1.0,2019_Sep_06_1045,SST,3.0.7,60.03689807657106,,
go,sst_images/Right_Arrow.bmp,None,2,750.0,None,0.0,98.0,98.0,98.0,,2,1.0,0.5552403420006158,go,0.35,0.75,1.75,1.0,Scanner,R,1.0,2019_Sep_06_1045,SST,3.0.7,60.03689807657106,,
stop,sst_images/Right_Arrow.bmp,sst_images/Stop_Arrow.bmp,none,893.0,None,0.0,99.0,99.0,99.0,,2,0.0,0.5073715170001378,stop,0.3,0.893,2.035628482999862,1.0,Scanner,R,1.0,2019_Sep_06_1045,SST,3.0.7,60.03689807657106,,
go,sst_images/Left_Arrow.bmp,None,1,748.0,None,0.0,100.0,100.0,100.0,,1,1.0,0.5197604400018463,go,0.3,0.748,1.7480000000000002,1.0,Scanner,R,1.0,2019_Sep_06_1045,SST,3.0.7,60.03689807657106,,
go,sst_images/Right_Arrow.bmp,None,2,1219.0,None,0.0,101.0,101.0,101.0,,2,1.0,0.7054311730025802,go,0.3,1.219,2.2190000000000003,1.0,Scanner,R,1.0,2019_Sep_06_1045,SST,3.0.7,60.03689807657106,,
go,sst_images/Right_Arrow.bmp,None,2,938.0,None,0.0,102.0,102.0,102.0,,None,0.0,,go,0.3,0.938,1.9380000000000002,1.0,Scanner,R,1.0,2019_Sep_06_1045,SST,3.0.7,60.03689807657106,,
go,sst_images/Left_Arrow.bmp,None,1,706.0,None,0.0,103.0,103.0,103.0,,1,1.0,0.6542666040004406,go,0.3,0.706,1.706,1.0,Scanner,R,1.0,2019_Sep_06_1045,SST,3.0.7,60.03689807657106,,
stop,sst_images/Left_Arrow.bmp,sst_images/Stop_Arrow.bmp,none,740.0,None,0.0,104.0,104.0,104.0,,1,0.0,0.5708664759986277,stop,0.25,0.74,1.7691335240013724,1.0,Scanner,R,1.0,2019_Sep_06_1045,SST,3.0.7,60.03689807657106,,
go,sst_images/Right_Arrow.bmp,None,2,1313.0,None,0.0,105.0,105.0,105.0,,2,1.0,0.8185781380016124,go,0.25,1.3130000000000002,2.313,1.0,Scanner,R,1.0,2019_Sep_06_1045,SST,3.0.7,60.03689807657106,,
go,sst_images/Right_Arrow.bmp,None,2,869.0,None,0.0,106.0,106.0,106.0,,2,1.0,0.8039844459999586,go,0.25,0.8690000000000001,1.869,1.0,Scanner,R,1.0,2019_Sep_06_1045,SST,3.0.7,60.03689807657106,,
go,sst_images/Left_Arrow.bmp,None,1,862.0,None,0.0,107.0,107.0,107.0,,1,1.0,0.5037545290033449,go,0.25,0.862,1.8619999999999999,1.0,Scanner,R,1.0,2019_Sep_06_1045,SST,3.0.7,60.03689807657106,,
stop,sst_images/Left_Arrow.bmp,sst_images/Stop_Arrow.bmp,none,894.0,None,0.0,108.0,108.0,108.0,,None,1.0,,stop,0.3,0.894,1.8940000000000001,1.0,Scanner,R,1.0,2019_Sep_06_1045,SST,3.0.7,60.03689807657106,,
go,sst_images/Left_Arrow.bmp,None,1,1016.0,None,0.0,109.0,109.0,109.0,,1,1.0,0.9210526999995636,go,0.3,1.016,2.016,1.0,Scanner,R,1.0,2019_Sep_06_1045,SST,3.0.7,60.03689807657106,,
go,sst_images/Right_Arrow.bmp,None,2,929.0,None,0.0,110.0,110.0,110.0,,2,1.0,0.4874821980010893,go,0.3,0.929,1.929,1.0,Scanner,R,1.0,2019_Sep_06_1045,SST,3.0.7,60.03689807657106,,
stop,sst_images/Right_Arrow.bmp,sst_images/Stop_Arrow.bmp,none,758.0,None,0.0,111.0,111.0,111.0,,2,0.0,0.43862627699854784,stop,0.25,0.758,1.9193737230014525,1.0,Scanner,R,1.0,2019_Sep_06_1045,SST,3.0.7,60.03689807657106,,
go,sst_images/Right_Arrow.bmp,None,2,1181.0,None,0.0,112.0,112.0,112.0,,2,1.0,0.9698131270015438,go,0.25,1.181,2.181,1.0,Scanner,R,1.0,2019_Sep_06_1045,SST,3.0.7,60.03689807657106,,
go,sst_images/Left_Arrow.bmp,None,1,747.0,None,0.0,113.0,113.0,113.0,,1,1.0,0.8861975359977805,go,0.25,0.747,1.747,1.0,Scanner,R,1.0,2019_Sep_06_1045,SST,3.0.7,60.03689807657106,,
go,sst_images/Right_Arrow.bmp,None,2,742.0,None,0.0,114.0,114.0,114.0,,2,1.0,0.9375543339992872,go,0.25,0.742,1.742,1.0,Scanner,R,1.0,2019_Sep_06_1045,SST,3.0.7,60.03689807657106,,
stop,sst_images/Left_Arrow.bmp,sst_images/Stop_Arrow.bmp,none,813.0,None,0.0,115.0,115.0,115.0,,1,0.0,0.5183151769997494,stop,0.2,0.813,1.8446848230002504,1.0,Scanner,R,1.0,2019_Sep_06_1045,SST,3.0.7,60.03689807657106,,
go,sst_images/Left_Arrow.bmp,None,1,702.0,None,0.0,116.0,116.0,116.0,,1,1.0,0.4856414499990933,go,0.2,0.7020000000000001,1.702,1.0,Scanner,R,1.0,2019_Sep_06_1045,SST,3.0.7,60.03689807657106,,
go,sst_images/Right_Arrow.bmp,None,2,922.0,None,0.0,117.0,117.0,117.0,,2,1.0,0.6025494639980025,go,0.2,0.922,1.922,1.0,Scanner,R,1.0,2019_Sep_06_1045,SST,3.0.7,60.03689807657106,,
go,sst_images/Left_Arrow.bmp,None,1,959.0,None,0.0,118.0,118.0,118.0,,1,1.0,0.9205760810000356,go,0.2,0.9590000000000001,1.959,1.0,Scanner,R,1.0,2019_Sep_06_1045,SST,3.0.7,60.03689807657106,,
stop,sst_images/Right_Arrow.bmp,sst_images/Stop_Arrow.bmp,none,758.0,None,0.0,119.0,119.0,119.0,,None,1.0,,stop,0.25,0.758,1.758,1.0,Scanner,R,1.0,2019_Sep_06_1045,SST,3.0.7,60.03689807657106,,
go,sst_images/Right_Arrow.bmp,None,2,760.0,None,0.0,120.0,120.0,120.0,,2,1.0,0.7376784070002032,go,0.25,0.76,1.76,1.0,Scanner,R,1.0,2019_Sep_06_1045,SST,3.0.7,60.03689807657106,,
go,sst_images/Left_Arrow.bmp,None,1,702.0,None,0.0,121.0,121.0,121.0,,1,1.0,0.4708354810027231,go,0.25,0.7020000000000001,1.702,1.0,Scanner,R,1.0,2019_Sep_06_1045,SST,3.0.7,60.03689807657106,,
go,sst_images/Right_Arrow.bmp,None,2,879.0,None,0.0,122.0,122.0,122.0,,2,1.0,0.5681279109994648,go,0.25,0.879,1.879,1.0,Scanner,R,1.0,2019_Sep_06_1045,SST,3.0.7,60.03689807657106,,
go,sst_images/Left_Arrow.bmp,None,1,701.0,None,0.0,123.0,123.0,123.0,,1,1.0,0.5368435500022315,go,0.25,0.701,1.7009999999999998,1.0,Scanner,R,1.0,2019_Sep_06_1045,SST,3.0.7,60.03689807657106,,
go,sst_images/Right_Arrow.bmp,None,2,779.0,None,0.0,124.0,124.0,124.0,,2,1.0,0.6711051050006063,go,0.25,0.779,1.7790000000000001,1.0,Scanner,R,1.0,2019_Sep_06_1045,SST,3.0.7,60.03689807657106,,
go,sst_images/Left_Arrow.bmp,None,1,737.0,None,0.0,125.0,125.0,125.0,,1,1.0,0.5052841819997411,go,0.25,0.737,1.7369999999999999,1.0,Scanner,R,1.0,2019_Sep_06_1045,SST,3.0.7,60.03689807657106,,
go,sst_images/Right_Arrow.bmp,None,2,782.0,None,0.0,126.0,126.0,126.0,,2,1.0,0.7368946399983543,go,0.25,0.782,1.7819999999999998,1.0,Scanner,R,1.0,2019_Sep_06_1045,SST,3.0.7,60.03689807657106,,
go,sst_images/Right_Arrow.bmp,None,2,890.0,None,0.0,127.0,127.0,127.0,,2,1.0,0.5640204519986582,go,0.25,0.89,1.89,1.0,Scanner,R,1.0,2019_Sep_06_1045,SST,3.0.7,60.03689807657106,,
go,sst_images/Left_Arrow.bmp,None,1,707.0,None,0.0,128.0,128.0,128.0,,1,1.0,0.4545399430026009,go,0.25,0.7070000000000001,1.707,1.0,Scanner,R,1.0,2019_Sep_06_1045,SST,3.0.7,60.03689807657106,,
go,sst_images/Left_Arrow.bmp,None,1,755.0,None,0.0,129.0,129.0,129.0,,1,1.0,0.4375351480011887,go,0.25,0.755,1.755,1.0,Scanner,R,1.0,2019_Sep_06_1045,SST,3.0.7,60.03689807657106,,
go,sst_images/Left_Arrow.bmp,None,1,750.0,None,0.0,130.0,130.0,130.0,,1,1.0,0.6137894450002932,go,0.25,0.75,1.75,1.0,Scanner,R,1.0,2019_Sep_06_1045,SST,3.0.7,60.03689807657106,,
go,sst_images/Right_Arrow.bmp,None,2,1732.0,None,0.0,131.0,131.0,131.0,,2,1.0,0.521402850998129,go,0.25,1.732,2.7319999999999998,1.0,Scanner,R,1.0,2019_Sep_06_1045,SST,3.0.7,60.03689807657106,,
go,sst_images/Left_Arrow.bmp,None,1,865.0,None,0.0,132.0,132.0,132.0,,1,1.0,0.5032580480001343,go,0.25,0.865,1.865,1.0,Scanner,R,1.0,2019_Sep_06_1045,SST,3.0.7,60.03689807657106,,
go,sst_images/Left_Arrow.bmp,None,1,722.0,None,0.0,133.0,133.0,133.0,,1,1.0,0.4778754840008333,go,0.25,0.722,1.722,1.0,Scanner,R,1.0,2019_Sep_06_1045,SST,3.0.7,60.03689807657106,,
stop,sst_images/Right_Arrow.bmp,sst_images/Stop_Arrow.bmp,none,798.0,None,0.0,134.0,134.0,134.0,,None,1.0,,stop,0.3,0.7979999999999999,1.798,1.0,Scanner,R,1.0,2019_Sep_06_1045,SST,3.0.7,60.03689807657106,,
go,sst_images/Left_Arrow.bmp,None,1,893.0,None,0.0,135.0,135.0,135.0,,1,1.0,0.6379015290003736,go,0.3,0.893,1.893,1.0,Scanner,R,1.0,2019_Sep_06_1045,SST,3.0.7,60.03689807657106,,
go,sst_images/Right_Arrow.bmp,None,2,756.0,None,0.0,136.0,136.0,136.0,,None,0.0,,go,0.3,0.7559999999999999,1.756,1.0,Scanner,R,1.0,2019_Sep_06_1045,SST,3.0.7,60.03689807657106,,
go,sst_images/Left_Arrow.bmp,None,1,804.0,None,0.0,137.0,137.0,137.0,,1,1.0,0.5686154079994594,go,0.3,0.804,1.804,1.0,Scanner,R,1.0,2019_Sep_06_1045,SST,3.0.7,60.03689807657106,,
go,sst_images/Left_Arrow.bmp,None,1,700.0,None,0.0,138.0,138.0,138.0,,1,1.0,0.462998917002551,go,0.3,0.7,1.7,1.0,Scanner,R,1.0,2019_Sep_06_1045,SST,3.0.7,60.03689807657106,,
stop,sst_images/Left_Arrow.bmp,sst_images/Stop_Arrow.bmp,none,752.0,None,0.0,139.0,139.0,139.0,,None,1.0,,stop,0.35,0.752,1.7519999999999998,1.0,Scanner,R,1.0,2019_Sep_06_1045,SST,3.0.7,60.03689807657106,,
go,sst_images/Right_Arrow.bmp,None,2,727.0,None,0.0,140.0,140.0,140.0,,2,1.0,0.5212687319981342,go,0.35,0.727,1.727,1.0,Scanner,R,1.0,2019_Sep_06_1045,SST,3.0.7,60.03689807657106,,
go,sst_images/Right_Arrow.bmp,None,2,736.0,None,0.0,141.0,141.0,141.0,,2,1.0,0.571078151002439,go,0.35,0.736,1.736,1.0,Scanner,R,1.0,2019_Sep_06_1045,SST,3.0.7,60.03689807657106,,
go,sst_images/Left_Arrow.bmp,None,1,787.0,None,0.0,142.0,142.0,142.0,,1,1.0,0.5367711569997482,go,0.35,0.787,1.787,1.0,Scanner,R,1.0,2019_Sep_06_1045,SST,3.0.7,60.03689807657106,,
go,sst_images/Right_Arrow.bmp,None,2,758.0,None,0.0,143.0,143.0,143.0,,2,1.0,0.5021752749998996,go,0.35,0.758,1.758,1.0,Scanner,R,1.0,2019_Sep_06_1045,SST,3.0.7,60.03689807657106,,
go,sst_images/Left_Arrow.bmp,None,1,765.0,None,0.0,144.0,144.0,144.0,,1,1.0,0.4600109050006722,go,0.35,0.765,1.765,1.0,Scanner,R,1.0,2019_Sep_06_1045,SST,3.0.7,60.03689807657106,,
go,sst_images/Left_Arrow.bmp,None,1,717.0,None,0.0,145.0,145.0,145.0,,1,1.0,0.5537106210031197,go,0.35,0.7170000000000001,1.7169999999999999,1.0,Scanner,R,1.0,2019_Sep_06_1045,SST,3.0.7,60.03689807657106,,
go,sst_images/Right_Arrow.bmp,None,2,801.0,None,0.0,146.0,146.0,146.0,,2,1.0,0.4942920399989816,go,0.35,0.8009999999999999,1.8010000000000002,1.0,Scanner,R,1.0,2019_Sep_06_1045,SST,3.0.7,60.03689807657106,,
go,sst_images/Left_Arrow.bmp,None,1,884.0,None,0.0,147.0,147.0,147.0,,1,1.0,0.5447368460008875,go,0.35,0.884,1.8840000000000001,1.0,Scanner,R,1.0,2019_Sep_06_1045,SST,3.0.7,60.03689807657106,,
go,sst_images/Right_Arrow.bmp,None,2,754.0,None,0.0,148.0,148.0,148.0,,2,1.0,0.5024145889983629,go,0.35,0.754,1.754,1.0,Scanner,R,1.0,2019_Sep_06_1045,SST,3.0.7,60.03689807657106,,
go,sst_images/Left_Arrow.bmp,None,1,927.0,None,0.0,149.0,149.0,149.0,,1,1.0,0.4615679499984253,go,0.35,0.927,1.9269999999999998,1.0,Scanner,R,1.0,2019_Sep_06_1045,SST,3.0.7,60.03689807657106,,
go,sst_images/Right_Arrow.bmp,None,2,794.0,None,0.0,150.0,150.0,150.0,,2,1.0,0.6957483189980849,go,0.35,0.794,1.794,1.0,Scanner,R,1.0,2019_Sep_06_1045,SST,3.0.7,60.03689807657106,,
go,sst_images/Right_Arrow.bmp,None,2,1381.0,None,0.0,151.0,151.0,151.0,,2,1.0,0.587959440999839,go,0.35,1.381,2.381,1.0,Scanner,R,1.0,2019_Sep_06_1045,SST,3.0.7,60.03689807657106,,
go,sst_images/Left_Arrow.bmp,None,1,1259.0,None,0.0,152.0,152.0,152.0,,1,1.0,0.5192694229990593,go,0.35,1.2590000000000001,2.259,1.0,Scanner,R,1.0,2019_Sep_06_1045,SST,3.0.7,60.03689807657106,,
go,sst_images/Right_Arrow.bmp,None,2,717.0,None,0.0,153.0,153.0,153.0,,2,1.0,0.9584655489998112,go,0.35,0.7170000000000001,1.7169999999999999,1.0,Scanner,R,1.0,2019_Sep_06_1045,SST,3.0.7,60.03689807657106,,
go,sst_images/Left_Arrow.bmp,None,1,1278.0,None,0.0,154.0,154.0,154.0,,1,1.0,0.4215228899993235,go,0.35,1.278,2.278,1.0,Scanner,R,1.0,2019_Sep_06_1045,SST,3.0.7,60.03689807657106,,
go,sst_images/Right_Arrow.bmp,None,2,1066.0,None,0.0,155.0,155.0,155.0,,2,1.0,0.5440345239985618,go,0.35,1.0659999999999998,2.066,1.0,Scanner,R,1.0,2019_Sep_06_1045,SST,3.0.7,60.03689807657106,,
stop,sst_images/Left_Arrow.bmp,sst_images/Stop_Arrow.bmp,none,742.0,None,0.0,156.0,156.0,156.0,,1,0.0,0.6062177319981856,stop,0.3,0.742,1.7857822680018145,1.0,Scanner,R,1.0,2019_Sep_06_1045,SST,3.0.7,60.03689807657106,,
go,sst_images/Left_Arrow.bmp,None,1,752.0,None,0.0,157.0,157.0,157.0,,1,1.0,0.4952031470020302,go,0.3,0.752,1.7519999999999998,1.0,Scanner,R,1.0,2019_Sep_06_1045,SST,3.0.7,60.03689807657106,,
go,sst_images/Right_Arrow.bmp,None,2,715.0,None,0.0,158.0,158.0,158.0,,2,1.0,0.4771037909995357,go,0.3,0.715,1.715,1.0,Scanner,R,1.0,2019_Sep_06_1045,SST,3.0.7,60.03689807657106,,
go,sst_images/Left_Arrow.bmp,None,1,893.0,None,0.0,159.0,159.0,159.0,,1,1.0,0.471087373996852,go,0.3,0.893,1.893,1.0,Scanner,R,1.0,2019_Sep_06_1045,SST,3.0.7,60.03689807657106,,
go,sst_images/Left_Arrow.bmp,None,1,998.0,None,0.0,160.0,160.0,160.0,,1,1.0,0.4689857509983994,go,0.3,0.998,1.9980000000000002,1.0,Scanner,R,1.0,2019_Sep_06_1045,SST,3.0.7,60.03689807657106,,
stop,sst_images/Left_Arrow.bmp,sst_images/Stop_Arrow.bmp,none,745.0,None,0.0,161.0,161.0,161.0,,1,0.0,0.4702942490002897,stop,0.25,0.745,1.8747057509997105,1.0,Scanner,R,1.0,2019_Sep_06_1045,SST,3.0.7,60.03689807657106,,
go,sst_images/Right_Arrow.bmp,None,2,1453.0,None,0.0,162.0,162.0,162.0,,None,0.0,,go,0.25,1.453,2.4530000000000003,1.0,Scanner,R,1.0,2019_Sep_06_1045,SST,3.0.7,60.03689807657106,,
go,sst_images/Left_Arrow.bmp,None,1,847.0,None,0.0,163.0,163.0,163.0,,1,1.0,0.3930705569982821,go,0.25,0.847,1.847,1.0,Scanner,R,1.0,2019_Sep_06_1045,SST,3.0.7,60.03689807657106,,
go,sst_images/Right_Arrow.bmp,None,2,1248.0,None,0.0,164.0,164.0,164.0,,2,1.0,0.4444647159980377,go,0.25,1.248,2.248,1.0,Scanner,R,1.0,2019_Sep_06_1045,SST,3.0.7,60.03689807657106,,
go,sst_images/Right_Arrow.bmp,None,2,829.0,None,0.0,165.0,165.0,165.0,,2,1.0,0.5592225319996942,go,0.25,0.8290000000000001,1.829,1.0,Scanner,R,1.0,2019_Sep_06_1045,SST,3.0.7,60.03689807657106,,
go,sst_images/Right_Arrow.bmp,None,2,1113.0,None,0.0,166.0,166.0,166.0,,2,1.0,0.5199844599992502,go,0.25,1.113,2.113,1.0,Scanner,R,1.0,2019_Sep_06_1045,SST,3.0.7,60.03689807657106,,
go,sst_images/Left_Arrow.bmp,None,1,1154.0,None,0.0,167.0,167.0,167.0,,1,1.0,0.6583604579973326,go,0.25,1.1540000000000001,2.154,1.0,Scanner,R,1.0,2019_Sep_06_1045,SST,3.0.7,60.03689807657106,,
go,sst_images/Right_Arrow.bmp,None,2,928.0,None,0.0,168.0,168.0,168.0,,2,1.0,0.5875919509999221,go,0.25,0.9279999999999999,1.9280000000000002,1.0,Scanner,R,1.0,2019_Sep_06_1045,SST,3.0.7,60.03689807657106,,
go,sst_images/Right_Arrow.bmp,None,2,988.0,None,0.0,169.0,169.0,169.0,,2,1.0,0.4440439040008641,go,0.25,0.988,1.9880000000000002,1.0,Scanner,R,1.0,2019_Sep_06_1045,SST,3.0.7,60.03689807657106,,
go,sst_images/Left_Arrow.bmp,None,1,813.0,None,0.0,170.0,170.0,170.0,,1,1.0,0.4439299820005545,go,0.25,0.813,1.8130000000000002,1.0,Scanner,R,1.0,2019_Sep_06_1045,SST,3.0.7,60.03689807657106,,
stop,sst_images/Right_Arrow.bmp,sst_images/Stop_Arrow.bmp,none,783.0,None,0.0,171.0,171.0,171.0,,None,1.0,,stop,0.3,0.7829999999999999,1.783,1.0,Scanner,R,1.0,2019_Sep_06_1045,SST,3.0.7,60.03689807657106,,
go,sst_images/Right_Arrow.bmp,None,2,931.0,None,0.0,172.0,172.0,172.0,,2,1.0,0.4598183790003532,go,0.3,0.9309999999999999,1.931,1.0,Scanner,R,1.0,2019_Sep_06_1045,SST,3.0.7,60.03689807657106,,
go,sst_images/Right_Arrow.bmp,None,2,946.0,None,0.0,173.0,173.0,173.0,,2,1.0,0.5245395589990949,go,0.3,0.946,1.946,1.0,Scanner,R,1.0,2019_Sep_06_1045,SST,3.0.7,60.03689807657106,,
go,sst_images/Right_Arrow.bmp,None,2,800.0,None,0.0,174.0,174.0,174.0,,2,1.0,0.5753610230021877,go,0.3,0.8,1.8,1.0,Scanner,R,1.0,2019_Sep_06_1045,SST,3.0.7,60.03689807657106,,
go,sst_images/Left_Arrow.bmp,None,1,962.0,None,0.0,175.0,175.0,175.0,,1,1.0,0.7752114459981385,go,0.3,0.9620000000000001,1.962,1.0,Scanner,R,1.0,2019_Sep_06_1045,SST,3.0.7,60.03689807657106,,
go,sst_images/Right_Arrow.bmp,None,2,740.0,None,0.0,176.0,176.0,176.0,,2,1.0,0.4426551220021793,go,0.3,0.74,1.74,1.0,Scanner,R,1.0,2019_Sep_06_1045,SST,3.0.7,60.03689807657106,,
go,sst_images/Left_Arrow.bmp,None,1,758.0,None,0.0,177.0,177.0,177.0,,1,1.0,0.4755382949988416,go,0.3,0.758,1.758,1.0,Scanner,R,1.0,2019_Sep_06_1045,SST,3.0.7,60.03689807657106,,
stop,sst_images/Left_Arrow.bmp,sst_images/Stop_Arrow.bmp,none,798.0,None,0.0,178.0,178.0,178.0,,1,0.0,0.5892170799997984,stop,0.25,0.7979999999999999,1.8087829200002017,1.0,Scanner,R,1.0,2019_Sep_06_1045,SST,3.0.7,60.03689807657106,,
go,sst_images/Right_Arrow.bmp,None,2,737.0,2661.0,0.0,179.0,179.0,179.0,,2,1.0,0.8100889200031816,go,0.25,0.737,1.7369999999999999,1.0,Scanner,R,1.0,2019_Sep_06_1045,SST,3.0.7,60.03689807657106,,
go,sst_images/Left_Arrow.bmp,None,1,975.0,None,0.0,0.0,0.0,0.0,2.0,1,1.0,0.5696728580005583,go,0.05,0.975,1.975,1.0,Scanner,R,2.0,2019_Sep_06_1052,SST,3.0.7,60.046473328891324,,
go,sst_images/Right_Arrow.bmp,None,2,775.0,None,0.0,1.0,1.0,1.0,,2,1.0,0.7378441019973252,go,0.05,0.775,1.775,1.0,Scanner,R,2.0,2019_Sep_06_1052,SST,3.0.7,60.046473328891324,,
go,sst_images/Right_Arrow.bmp,None,2,773.0,None,0.0,2.0,2.0,2.0,,2,1.0,0.4873023969994392,go,0.05,0.773,1.773,1.0,Scanner,R,2.0,2019_Sep_06_1052,SST,3.0.7,60.046473328891324,,
go,sst_images/Left_Arrow.bmp,None,1,747.0,None,0.0,3.0,3.0,3.0,,1,1.0,0.5913525620017026,go,0.05,0.747,1.747,1.0,Scanner,R,2.0,2019_Sep_06_1052,SST,3.0.7,60.046473328891324,,
stop,sst_images/Right_Arrow.bmp,sst_images/Stop_Arrow.bmp,none,709.0,None,0.0,4.0,4.0,4.0,,None,1.0,,stop,0.1,0.7090000000000001,1.709,1.0,Scanner,R,2.0,2019_Sep_06_1052,SST,3.0.7,60.046473328891324,,
go,sst_images/Left_Arrow.bmp,None,1,702.0,None,0.0,5.0,5.0,5.0,,1,1.0,0.5554083799979708,go,0.1,0.7020000000000001,1.702,1.0,Scanner,R,2.0,2019_Sep_06_1052,SST,3.0.7,60.046473328891324,,
go,sst_images/Right_Arrow.bmp,None,2,931.0,None,0.0,6.0,6.0,6.0,,2,1.0,0.5206204960013565,go,0.1,0.9309999999999999,1.931,1.0,Scanner,R,2.0,2019_Sep_06_1052,SST,3.0.7,60.046473328891324,,
go,sst_images/Left_Arrow.bmp,None,1,1149.0,None,0.0,7.0,7.0,7.0,,1,1.0,0.4691488130010839,go,0.1,1.149,2.149,1.0,Scanner,R,2.0,2019_Sep_06_1052,SST,3.0.7,60.046473328891324,,
go,sst_images/Right_Arrow.bmp,None,2,748.0,None,0.0,8.0,8.0,8.0,,2,1.0,0.6695231140001852,go,0.1,0.748,1.7480000000000002,1.0,Scanner,R,2.0,2019_Sep_06_1052,SST,3.0.7,60.046473328891324,,
stop,sst_images/Left_Arrow.bmp,sst_images/Stop_Arrow.bmp,none,848.0,None,0.0,9.0,9.0,9.0,,None,1.0,,stop,0.15000000000000002,0.848,1.848,1.0,Scanner,R,2.0,2019_Sep_06_1052,SST,3.0.7,60.046473328891324,,
go,sst_images/Right_Arrow.bmp,None,2,733.0,None,0.0,10.0,10.0,10.0,,2,1.0,0.6048298169989721,go,0.15000000000000002,0.733,1.733,1.0,Scanner,R,2.0,2019_Sep_06_1052,SST,3.0.7,60.046473328891324,,
stop,sst_images/Left_Arrow.bmp,None,None,822.0,None,0.0,11.0,11.0,11.0,,None,1.0,,stop,0.2,0.8220000000000001,1.822,1.0,Scanner,R,2.0,2019_Sep_06_1052,SST,3.0.7,60.046473328891324,,
go,sst_images/Left_Arrow.bmp,None,1,1077.0,None,0.0,12.0,12.0,12.0,,1,1.0,0.6527584850009589,go,0.2,1.077,2.077,1.0,Scanner,R,2.0,2019_Sep_06_1052,SST,3.0.7,60.046473328891324,,
go,sst_images/Right_Arrow.bmp,None,2,895.0,None,0.0,13.0,13.0,13.0,,2,1.0,0.7021850259989151,go,0.2,0.895,1.895,1.0,Scanner,R,2.0,2019_Sep_06_1052,SST,3.0.7,60.046473328891324,,
go,sst_images/Left_Arrow.bmp,None,1,792.0,None,0.0,14.0,14.0,14.0,,1,1.0,0.4881184060031956,go,0.2,0.792,1.7919999999999998,1.0,Scanner,R,2.0,2019_Sep_06_1052,SST,3.0.7,60.046473328891324,,
go,sst_images/Left_Arrow.bmp,None,1,741.0,None,0.0,15.0,15.0,15.0,,1,1.0,0.6206923419995292,go,0.2,0.741,1.7409999999999999,1.0,Scanner,R,2.0,2019_Sep_06_1052,SST,3.0.7,60.046473328891324,,
go,sst_images/Left_Arrow.bmp,None,1,923.0,None,0.0,16.0,16.0,16.0,,1,1.0,0.5041762709988689,go,0.2,0.9229999999999999,1.923,1.0,Scanner,R,2.0,2019_Sep_06_1052,SST,3.0.7,60.046473328891324,,
stop,sst_images/Right_Arrow.bmp,sst_images/Stop_Arrow.bmp,none,799.0,None,0.0,17.0,17.0,17.0,,2,0.0,0.4039709270000458,stop,0.15000000000000002,0.799,1.8950290729999544,1.0,Scanner,R,2.0,2019_Sep_06_1052,SST,3.0.7,60.046473328891324,,
go,sst_images/Right_Arrow.bmp,None,2,836.0,None,0.0,18.0,18.0,18.0,,2,1.0,0.47173862600175204,go,0.15000000000000002,0.836,1.836,1.0,Scanner,R,2.0,2019_Sep_06_1052,SST,3.0.7,60.046473328891324,,
go,sst_images/Left_Arrow.bmp,None,1,789.0,None,0.0,19.0,19.0,19.0,,1,1.0,0.4011614939990977,go,0.15000000000000002,0.789,1.789,1.0,Scanner,R,2.0,2019_Sep_06_1052,SST,3.0.7,60.046473328891324,,
go,sst_images/Left_Arrow.bmp,None,1,1843.0,None,0.0,20.0,20.0,20.0,,1,1.0,0.7377681270008907,go,0.15000000000000002,1.8430000000000002,2.843,1.0,Scanner,R,2.0,2019_Sep_06_1052,SST,3.0.7,60.046473328891324,,
go,sst_images/Right_Arrow.bmp,None,2,839.0,None,0.0,21.0,21.0,21.0,,2,1.0,0.4689882899983786,go,0.15000000000000002,0.8390000000000001,1.839,1.0,Scanner,R,2.0,2019_Sep_06_1052,SST,3.0.7,60.046473328891324,,
go,sst_images/Left_Arrow.bmp,None,1,708.0,None,0.0,22.0,22.0,22.0,,1,1.0,0.4214389469998423,go,0.15000000000000002,0.708,1.7080000000000002,1.0,Scanner,R,2.0,2019_Sep_06_1052,SST,3.0.7,60.046473328891324,,
go,sst_images/Right_Arrow.bmp,None,2,1161.0,None,0.0,23.0,23.0,23.0,,2,1.0,0.5543967179983156,go,0.15000000000000002,1.161,2.161,1.0,Scanner,R,2.0,2019_Sep_06_1052,SST,3.0.7,60.046473328891324,,
stop,sst_images/Right_Arrow.bmp,sst_images/Stop_Arrow.bmp,none,897.0,None,0.0,24.0,24.0,24.0,,None,1.0,,stop,0.2,0.897,1.8969999999999998,1.0,Scanner,R,2.0,2019_Sep_06_1052,SST,3.0.7,60.046473328891324,,
go,sst_images/Left_Arrow.bmp,None,1,1027.0,None,0.0,25.0,25.0,25.0,,1,1.0,0.6040384810003161,go,0.2,1.0270000000000001,2.0269999999999997,1.0,Scanner,R,2.0,2019_Sep_06_1052,SST,3.0.7,60.046473328891324,,
go,sst_images/Right_Arrow.bmp,None,2,724.0,None,0.0,26.0,26.0,26.0,,2,1.0,0.5209986469999421,go,0.2,0.7240000000000001,1.724,1.0,Scanner,R,2.0,2019_Sep_06_1052,SST,3.0.7,60.046473328891324,,
stop,sst_images/Left_Arrow.bmp,sst_images/Stop_Arrow.bmp,none,733.0,None,0.0,27.0,27.0,27.0,,None,1.0,,stop,0.25,0.733,1.733,1.0,Scanner,R,2.0,2019_Sep_06_1052,SST,3.0.7,60.046473328891324,,
go,sst_images/Right_Arrow.bmp,None,2,924.0,None,0.0,28.0,28.0,28.0,,2,1.0,0.4694831580018217,go,0.25,0.924,1.9240000000000002,1.0,Scanner,R,2.0,2019_Sep_06_1052,SST,3.0.7,60.046473328891324,,
go,sst_images/Left_Arrow.bmp,None,1,719.0,None,0.0,29.0,29.0,29.0,,1,1.0,0.4363484770001378,go,0.25,0.7190000000000001,1.719,1.0,Scanner,R,2.0,2019_Sep_06_1052,SST,3.0.7,60.046473328891324,,
go,sst_images/Right_Arrow.bmp,None,2,752.0,None,0.0,30.0,30.0,30.0,,2,1.0,0.4366689609996683,go,0.25,0.752,1.7519999999999998,1.0,Scanner,R,2.0,2019_Sep_06_1052,SST,3.0.7,60.046473328891324,,
stop,sst_images/Right_Arrow.bmp,sst_images/Stop_Arrow.bmp,none,732.0,None,0.0,31.0,31.0,31.0,,2,0.0,0.4546417120000114,stop,0.2,0.732,1.8273582879999888,1.0,Scanner,R,2.0,2019_Sep_06_1052,SST,3.0.7,60.046473328891324,,
go,sst_images/Right_Arrow.bmp,None,2,813.0,None,0.0,32.0,32.0,32.0,,2,1.0,0.5723168590011483,go,0.2,0.813,1.8130000000000002,1.0,Scanner,R,2.0,2019_Sep_06_1052,SST,3.0.7,60.046473328891324,,
go,sst_images/Left_Arrow.bmp,None,1,991.0,None,0.0,33.0,33.0,33.0,,1,1.0,0.45346273800168996,go,0.2,0.991,1.9909999999999999,1.0,Scanner,R,2.0,2019_Sep_06_1052,SST,3.0.7,60.046473328891324,,
go,sst_images/Right_Arrow.bmp,None,2,810.0,None,0.0,34.0,34.0,34.0,,2,1.0,0.5549744029995054,go,0.2,0.81,1.81,1.0,Scanner,R,2.0,2019_Sep_06_1052,SST,3.0.7,60.046473328891324,,
go,sst_images/Left_Arrow.bmp,None,1,852.0,None,0.0,35.0,35.0,35.0,,1,1.0,0.3882561270002043,go,0.2,0.852,1.852,1.0,Scanner,R,2.0,2019_Sep_06_1052,SST,3.0.7,60.046473328891324,,
stop,sst_images/Right_Arrow.bmp,sst_images/Stop_Arrow.bmp,none,1038.0,None,0.0,36.0,36.0,36.0,,None,1.0,,stop,0.25,1.038,2.0380000000000003,1.0,Scanner,R,2.0,2019_Sep_06_1052,SST,3.0.7,60.046473328891324,,
go,sst_images/Left_Arrow.bmp,None,1,770.0,None,0.0,37.0,37.0,37.0,,1,1.0,0.5534320859987929,go,0.25,0.77,1.77,1.0,Scanner,R,2.0,2019_Sep_06_1052,SST,3.0.7,60.046473328891324,,
go,sst_images/Right_Arrow.bmp,None,2,750.0,None,0.0,38.0,38.0,38.0,,2,1.0,0.6382953209977131,go,0.25,0.75,1.75,1.0,Scanner,R,2.0,2019_Sep_06_1052,SST,3.0.7,60.046473328891324,,
go,sst_images/Right_Arrow.bmp,None,2,879.0,None,0.0,39.0,39.0,39.0,,2,1.0,0.5530324700011988,go,0.25,0.879,1.879,1.0,Scanner,R,2.0,2019_Sep_06_1052,SST,3.0.7,60.046473328891324,,
go,sst_images/Left_Arrow.bmp,None,1,892.0,None,0.0,40.0,40.0,40.0,,1,1.0,0.5359573579989956,go,0.25,0.892,1.892,1.0,Scanner,R,2.0,2019_Sep_06_1052,SST,3.0.7,60.046473328891324,,
go,sst_images/Left_Arrow.bmp,None,1,750.0,None,0.0,41.0,41.0,41.0,,1,1.0,0.7206817759979458,go,0.25,0.75,1.75,1.0,Scanner,R,2.0,2019_Sep_06_1052,SST,3.0.7,60.046473328891324,,
stop,sst_images/Left_Arrow.bmp,sst_images/Stop_Arrow.bmp,none,777.0,None,0.0,42.0,42.0,42.0,,1,0.0,0.4692138440004783,stop,0.2,0.777,1.857786155999522,1.0,Scanner,R,2.0,2019_Sep_06_1052,SST,3.0.7,60.046473328891324,,
go,sst_images/Right_Arrow.bmp,None,2,1125.0,None,0.0,43.0,43.0,43.0,,2,1.0,0.4209269410021079,go,0.2,1.125,2.125,1.0,Scanner,R,2.0,2019_Sep_06_1052,SST,3.0.7,60.046473328891324,,
go,sst_images/Left_Arrow.bmp,None,1,1067.0,None,0.0,44.0,44.0,44.0,,1,1.0,0.4545246500019857,go,0.2,1.067,2.0669999999999997,1.0,Scanner,R,2.0,2019_Sep_06_1052,SST,3.0.7,60.046473328891324,,
go,sst_images/Left_Arrow.bmp,None,1,746.0,None,0.0,45.0,45.0,45.0,,1,1.0,0.5691703939992294,go,0.2,0.746,1.746,1.0,Scanner,R,2.0,2019_Sep_06_1052,SST,3.0.7,60.046473328891324,,
go,sst_images/Right_Arrow.bmp,None,2,826.0,None,0.0,46.0,46.0,46.0,,2,1.0,0.5380576290008321,go,0.2,0.826,1.8259999999999998,1.0,Scanner,R,2.0,2019_Sep_06_1052,SST,3.0.7,60.046473328891324,,
go,sst_images/Right_Arrow.bmp,None,2,933.0,None,0.0,47.0,47.0,47.0,,2,1.0,0.517918785000802,go,0.2,0.9329999999999999,1.933,1.0,Scanner,R,2.0,2019_Sep_06_1052,SST,3.0.7,60.046473328891324,,
go,sst_images/Right_Arrow.bmp,None,2,1204.0,None,0.0,48.0,48.0,48.0,,2,1.0,0.5537275450005836,go,0.2,1.204,2.204,1.0,Scanner,R,2.0,2019_Sep_06_1052,SST,3.0.7,60.046473328891324,,
go,sst_images/Left_Arrow.bmp,None,1,877.0,None,0.0,49.0,49.0,49.0,,1,1.0,0.5184632670025167,go,0.2,0.877,1.8769999999999998,1.0,Scanner,R,2.0,2019_Sep_06_1052,SST,3.0.7,60.046473328891324,,
go,sst_images/Left_Arrow.bmp,None,1,803.0,None,0.0,50.0,50.0,50.0,,1,1.0,0.4789132289988629,go,0.2,0.8029999999999999,1.8030000000000002,1.0,Scanner,R,2.0,2019_Sep_06_1052,SST,3.0.7,60.046473328891324,,
go,sst_images/Left_Arrow.bmp,None,1,1076.0,None,0.0,51.0,51.0,51.0,,1,1.0,0.4389129160008451,go,0.2,1.0759999999999998,2.076,1.0,Scanner,R,2.0,2019_Sep_06_1052,SST,3.0.7,60.046473328891324,,
stop,sst_images/Right_Arrow.bmp,sst_images/Stop_Arrow.bmp,none,724.0,None,0.0,52.0,52.0,52.0,,None,1.0,,stop,0.25,0.7240000000000001,1.724,1.0,Scanner,R,2.0,2019_Sep_06_1052,SST,3.0.7,60.046473328891324,,
go,sst_images/Right_Arrow.bmp,None,2,756.0,None,0.0,53.0,53.0,53.0,,2,1.0,0.6388519820029614,go,0.25,0.7559999999999999,1.756,1.0,Scanner,R,2.0,2019_Sep_06_1052,SST,3.0.7,60.046473328891324,,
go,sst_images/Right_Arrow.bmp,None,2,1227.0,None,0.0,54.0,54.0,54.0,,2,1.0,0.5034850709998864,go,0.25,1.227,2.2270000000000003,1.0,Scanner,R,2.0,2019_Sep_06_1052,SST,3.0.7,60.046473328891324,,
go,sst_images/Left_Arrow.bmp,None,1,1311.0,None,0.0,55.0,55.0,55.0,,1,1.0,0.47925844999917894,go,0.25,1.311,2.311,1.0,Scanner,R,2.0,2019_Sep_06_1052,SST,3.0.7,60.046473328891324,,
go,sst_images/Left_Arrow.bmp,None,1,822.0,None,0.0,56.0,56.0,56.0,,1,1.0,0.8697545710019767,go,0.25,0.8220000000000001,1.8219999999999998,1.0,Scanner,R,2.0,2019_Sep_06_1052,SST,3.0.7,60.046473328891324,,
go,sst_images/Left_Arrow.bmp,None,1,807.0,None,0.0,57.0,57.0,57.0,,1,1.0,0.4708700979972491,go,0.25,0.807,1.807,1.0,Scanner,R,2.0,2019_Sep_06_1052,SST,3.0.7,60.046473328891324,,
go,sst_images/Right_Arrow.bmp,None,2,852.0,None,0.0,58.0,58.0,58.0,,2,1.0,0.7042526269979135,go,0.25,0.852,1.852,1.0,Scanner,R,2.0,2019_Sep_06_1052,SST,3.0.7,60.046473328891324,,
go,sst_images/Left_Arrow.bmp,None,1,817.0,None,0.0,59.0,59.0,59.0,,1,1.0,0.4361929680017056,go,0.25,0.8170000000000001,1.817,1.0,Scanner,R,2.0,2019_Sep_06_1052,SST,3.0.7,60.046473328891324,,
go,sst_images/Left_Arrow.bmp,None,1,803.0,None,0.0,60.0,60.0,60.0,,1,1.0,0.5205843930016272,go,0.25,0.8029999999999999,1.8030000000000002,1.0,Scanner,R,2.0,2019_Sep_06_1052,SST,3.0.7,60.046473328891324,,
go,sst_images/Right_Arrow.bmp,None,2,746.0,None,0.0,61.0,61.0,61.0,,2,1.0,0.4861155110011168,go,0.25,0.746,1.746,1.0,Scanner,R,2.0,2019_Sep_06_1052,SST,3.0.7,60.046473328891324,,
go,sst_images/Right_Arrow.bmp,None,2,813.0,None,0.0,62.0,62.0,62.0,,2,1.0,0.6884998090026784,go,0.25,0.813,1.8130000000000002,1.0,Scanner,R,2.0,2019_Sep_06_1052,SST,3.0.7,60.046473328891324,,
go,sst_images/Left_Arrow.bmp,None,1,966.0,None,0.0,63.0,63.0,63.0,,1,1.0,0.5210493300000962,go,0.25,0.966,1.966,1.0,Scanner,R,2.0,2019_Sep_06_1052,SST,3.0.7,60.046473328891324,,
go,sst_images/Right_Arrow.bmp,None,2,764.0,None,0.0,64.0,64.0,64.0,,2,1.0,0.4529679009974643,go,0.25,0.764,1.764,1.0,Scanner,R,2.0,2019_Sep_06_1052,SST,3.0.7,60.046473328891324,,
go,sst_images/Left_Arrow.bmp,None,1,1038.0,None,0.0,65.0,65.0,65.0,,1,1.0,0.6526762479988975,go,0.25,1.038,2.0380000000000003,1.0,Scanner,R,2.0,2019_Sep_06_1052,SST,3.0.7,60.046473328891324,,
stop,sst_images/Left_Arrow.bmp,sst_images/Stop_Arrow.bmp,none,777.0,None,0.0,66.0,66.0,66.0,,1,0.0,0.5530565500012017,stop,0.2,0.777,1.7739434499987985,1.0,Scanner,R,2.0,2019_Sep_06_1052,SST,3.0.7,60.046473328891324,,
go,sst_images/Right_Arrow.bmp,None,2,949.0,None,0.0,67.0,67.0,67.0,,2,1.0,0.5688137109973468,go,0.2,0.9490000000000001,1.949,1.0,Scanner,R,2.0,2019_Sep_06_1052,SST,3.0.7,60.046473328891324,,
go,sst_images/Right_Arrow.bmp,None,2,806.0,None,0.0,68.0,68.0,68.0,,2,1.0,0.5792230570004904,go,0.2,0.8059999999999999,1.806,1.0,Scanner,R,2.0,2019_Sep_06_1052,SST,3.0.7,60.046473328891324,,
go,sst_images/Left_Arrow.bmp,None,1,740.0,None,0.0,69.0,69.0,69.0,,1,1.0,0.4045696549983404,go,0.2,0.74,1.74,1.0,Scanner,R,2.0,2019_Sep_06_1052,SST,3.0.7,60.046473328891324,,
stop,sst_images/Right_Arrow.bmp,sst_images/Stop_Arrow.bmp,none,807.0,None,0.0,70.0,70.0,70.0,,2,0.0,0.38738506399749895,stop,0.15000000000000002,0.807,1.919614936002501,1.0,Scanner,R,2.0,2019_Sep_06_1052,SST,3.0.7,60.046473328891324,,
go,sst_images/Right_Arrow.bmp,None,2,744.0,None,0.0,71.0,71.0,71.0,,2,1.0,0.6463771509988874,go,0.15000000000000002,0.7440000000000001,1.744,1.0,Scanner,R,2.0,2019_Sep_06_1052,SST,3.0.7,60.046473328891324,,
go,sst_images/Left_Arrow.bmp,None,1,728.0,None,0.0,72.0,72.0,72.0,,1,1.0,0.8605719459992542,go,0.15000000000000002,0.728,1.7280000000000002,1.0,Scanner,R,2.0,2019_Sep_06_1052,SST,3.0.7,60.046473328891324,,
stop,sst_images/Right_Arrow.bmp,sst_images/Stop_Arrow.bmp,none,795.0,None,0.0,73.0,73.0,73.0,,None,1.0,,stop,0.2,0.795,1.7950000000000002,1.0,Scanner,R,2.0,2019_Sep_06_1052,SST,3.0.7,60.046473328891324,,
go,sst_images/Right_Arrow.bmp,None,2,944.0,None,0.0,74.0,74.0,74.0,,2,1.0,0.4966553800004476,go,0.2,0.9440000000000001,1.944,1.0,Scanner,R,2.0,2019_Sep_06_1052,SST,3.0.7,60.046473328891324,,
go,sst_images/Left_Arrow.bmp,None,1,1047.0,None,0.0,75.0,75.0,75.0,,1,1.0,0.4260480679986358,go,0.2,1.047,2.047,1.0,Scanner,R,2.0,2019_Sep_06_1052,SST,3.0.7,60.046473328891324,,
go,sst_images/Right_Arrow.bmp,None,2,707.0,None,0.0,76.0,76.0,76.0,,2,1.0,0.5197658830002183,go,0.2,0.7070000000000001,1.707,1.0,Scanner,R,2.0,2019_Sep_06_1052,SST,3.0.7,60.046473328891324,,
stop,sst_images/Left_Arrow.bmp,sst_images/Stop_Arrow.bmp,none,1066.0,None,0.0,77.0,77.0,77.0,,None,1.0,,stop,0.25,1.0659999999999998,2.066,1.0,Scanner,R,2.0,2019_Sep_06_1052,SST,3.0.7,60.046473328891324,,
go,sst_images/Right_Arrow.bmp,None,2,1270.0,None,0.0,78.0,78.0,78.0,,2,1.0,0.6200696719970438,go,0.25,1.27,2.27,1.0,Scanner,R,2.0,2019_Sep_06_1052,SST,3.0.7,60.046473328891324,,
go,sst_images/Left_Arrow.bmp,None,1,708.0,None,0.0,79.0,79.0,79.0,,1,1.0,0.3950261440004397,go,0.25,0.708,1.7080000000000002,1.0,Scanner,R,2.0,2019_Sep_06_1052,SST,3.0.7,60.046473328891324,,
go,sst_images/Left_Arrow.bmp,None,1,724.0,None,0.0,80.0,80.0,80.0,,1,1.0,0.5186939829982293,go,0.25,0.7240000000000001,1.724,1.0,Scanner,R,2.0,2019_Sep_06_1052,SST,3.0.7,60.046473328891324,,
go,sst_images/Right_Arrow.bmp,None,2,739.0,None,0.0,81.0,81.0,81.0,,2,1.0,0.6592113019978569,go,0.25,0.7390000000000001,1.739,1.0,Scanner,R,2.0,2019_Sep_06_1052,SST,3.0.7,60.046473328891324,,
go,sst_images/Right_Arrow.bmp,None,2,750.0,None,0.0,82.0,82.0,82.0,,2,1.0,0.527171219997399,go,0.25,0.75,1.75,1.0,Scanner,R,2.0,2019_Sep_06_1052,SST,3.0.7,60.046473328891324,,
stop,sst_images/Right_Arrow.bmp,sst_images/Stop_Arrow.bmp,none,833.0,None,0.0,83.0,83.0,83.0,,None,1.0,,stop,0.3,0.833,1.8330000000000002,1.0,Scanner,R,2.0,2019_Sep_06_1052,SST,3.0.7,60.046473328891324,,
go,sst_images/Right_Arrow.bmp,None,2,1062.0,None,0.0,84.0,84.0,84.0,,2,1.0,0.6211536939990765,go,0.3,1.062,2.0620000000000003,1.0,Scanner,R,2.0,2019_Sep_06_1052,SST,3.0.7,60.046473328891324,,
go,sst_images/Left_Arrow.bmp,None,1,1279.0,None,0.0,85.0,85.0,85.0,,1,1.0,0.7937632809989736,go,0.3,1.2790000000000001,2.279,1.0,Scanner,R,2.0,2019_Sep_06_1052,SST,3.0.7,60.046473328891324,,
go,sst_images/Left_Arrow.bmp,None,1,1154.0,None,0.0,86.0,86.0,86.0,,None,0.0,,go,0.3,1.1540000000000001,2.154,1.0,Scanner,R,2.0,2019_Sep_06_1052,SST,3.0.7,60.046473328891324,,
go,sst_images/Right_Arrow.bmp,None,2,1101.0,None,0.0,87.0,87.0,87.0,,2,1.0,0.8929025600009481,go,0.3,1.101,2.101,1.0,Scanner,R,2.0,2019_Sep_06_1052,SST,3.0.7,60.046473328891324,,
go,sst_images/Left_Arrow.bmp,None,1,993.0,None,0.0,88.0,88.0,88.0,,1,1.0,0.458059204996971,go,0.3,0.993,1.993,1.0,Scanner,R,2.0,2019_Sep_06_1052,SST,3.0.7,60.046473328891324,,
go,sst_images/Right_Arrow.bmp,None,2,884.0,None,0.0,89.0,89.0,89.0,,2,1.0,0.4596016960022098,go,0.3,0.884,1.8840000000000001,1.0,Scanner,R,2.0,2019_Sep_06_1052,SST,3.0.7,60.046473328891324,,
go,sst_images/Left_Arrow.bmp,None,1,932.0,None,0.0,90.0,90.0,90.0,,1,1.0,0.5774763769986748,go,0.3,0.932,1.932,1.0,Scanner,R,2.0,2019_Sep_06_1052,SST,3.0.7,60.046473328891324,,
stop,sst_images/Right_Arrow.bmp,sst_images/Stop_Arrow.bmp,none,966.0,None,0.0,91.0,91.0,91.0,,2,0.0,0.5510243339995213,stop,0.25,0.966,2.0149756660004785,1.0,Scanner,R,2.0,2019_Sep_06_1052,SST,3.0.7,60.046473328891324,,
go,sst_images/Right_Arrow.bmp,None,2,898.0,None,0.0,92.0,92.0,92.0,,2,1.0,0.7954486560010992,go,0.25,0.898,1.898,1.0,Scanner,R,2.0,2019_Sep_06_1052,SST,3.0.7,60.046473328891324,,
go,sst_images/Left_Arrow.bmp,None,1,922.0,None,0.0,93.0,93.0,93.0,,1,1.0,0.4773564730021462,go,0.25,0.922,1.922,1.0,Scanner,R,2.0,2019_Sep_06_1052,SST,3.0.7,60.046473328891324,,
go,sst_images/Left_Arrow.bmp,None,1,834.0,None,0.0,94.0,94.0,94.0,,1,1.0,0.5087181810013135,go,0.25,0.8340000000000001,1.834,1.0,Scanner,R,2.0,2019_Sep_06_1052,SST,3.0.7,60.046473328891324,,
stop,sst_images/Left_Arrow.bmp,sst_images/Stop_Arrow.bmp,none,782.0,None,0.0,95.0,95.0,95.0,,1,0.0,0.4044570130026841,stop,0.2,0.782,1.927542986997316,1.0,Scanner,R,2.0,2019_Sep_06_1052,SST,3.0.7,60.046473328891324,,
go,sst_images/Left_Arrow.bmp,None,1,806.0,None,0.0,96.0,96.0,96.0,,1,1.0,0.8943653939968499,go,0.2,0.8059999999999999,1.806,1.0,Scanner,R,2.0,2019_Sep_06_1052,SST,3.0.7,60.046473328891324,,
go,sst_images/Right_Arrow.bmp,None,2,804.0,None,0.0,97.0,97.0,97.0,,2,1.0,0.6742631449997134,go,0.2,0.804,1.804,1.0,Scanner,R,2.0,2019_Sep_06_1052,SST,3.0.7,60.046473328891324,,
go,sst_images/Left_Arrow.bmp,None,1,1001.0,None,0.0,98.0,98.0,98.0,,1,1.0,0.489059923998866,go,0.2,1.001,2.001,1.0,Scanner,R,2.0,2019_Sep_06_1052,SST,3.0.7,60.046473328891324,,
go,sst_images/Right_Arrow.bmp,None,2,990.0,None,0.0,99.0,99.0,99.0,,2,1.0,0.5226604300005421,go,0.2,0.99,1.99,1.0,Scanner,R,2.0,2019_Sep_06_1052,SST,3.0.7,60.046473328891324,,
stop,sst_images/Left_Arrow.bmp,sst_images/Stop_Arrow.bmp,none,803.0,None,0.0,100.0,100.0,100.0,,None,1.0,,stop,0.25,0.8029999999999999,1.8030000000000002,1.0,Scanner,R,2.0,2019_Sep_06_1052,SST,3.0.7,60.046473328891324,,
go,sst_images/Right_Arrow.bmp,None,2,755.0,None,0.0,101.0,101.0,101.0,,2,1.0,0.5915638410006068,go,0.25,0.755,1.755,1.0,Scanner,R,2.0,2019_Sep_06_1052,SST,3.0.7,60.046473328891324,,
go,sst_images/Left_Arrow.bmp,None,1,1222.0,None,0.0,102.0,102.0,102.0,,1,1.0,0.4414041240015649,go,0.25,1.222,2.222,1.0,Scanner,R,2.0,2019_Sep_06_1052,SST,3.0.7,60.046473328891324,,
go,sst_images/Right_Arrow.bmp,None,2,752.0,None,0.0,103.0,103.0,103.0,,2,1.0,0.4563355660029629,go,0.25,0.752,1.7519999999999998,1.0,Scanner,R,2.0,2019_Sep_06_1052,SST,3.0.7,60.046473328891324,,
go,sst_images/Right_Arrow.bmp,None,2,1001.0,None,0.0,104.0,104.0,104.0,,2,1.0,0.6091848420001043,go,0.25,1.001,2.001,1.0,Scanner,R,2.0,2019_Sep_06_1052,SST,3.0.7,60.046473328891324,,
go,sst_images/Left_Arrow.bmp,None,1,1372.0,None,0.0,105.0,105.0,105.0,,1,1.0,0.6778804829991714,go,0.25,1.3719999999999999,2.372,1.0,Scanner,R,2.0,2019_Sep_06_1052,SST,3.0.7,60.046473328891324,,
go,sst_images/Left_Arrow.bmp,None,1,782.0,None,0.0,106.0,106.0,106.0,,1,1.0,0.5407547620015976,go,0.25,0.782,1.7819999999999998,1.0,Scanner,R,2.0,2019_Sep_06_1052,SST,3.0.7,60.046473328891324,,
stop,sst_images/Right_Arrow.bmp,sst_images/Stop_Arrow.bmp,none,737.0,None,0.0,107.0,107.0,107.0,,None,1.0,,stop,0.3,0.737,1.737,1.0,Scanner,R,2.0,2019_Sep_06_1052,SST,3.0.7,60.046473328891324,,
go,sst_images/Right_Arrow.bmp,None,2,951.0,None,0.0,108.0,108.0,108.0,,2,1.0,0.43796079300227575,go,0.3,0.951,1.9509999999999998,1.0,Scanner,R,2.0,2019_Sep_06_1052,SST,3.0.7,60.046473328891324,,
go,sst_images/Right_Arrow.bmp,None,2,735.0,None,0.0,109.0,109.0,109.0,,None,0.0,,go,0.3,0.735,1.735,1.0,Scanner,R,2.0,2019_Sep_06_1052,SST,3.0.7,60.046473328891324,,
stop,sst_images/Left_Arrow.bmp,sst_images/Stop_Arrow.bmp,none,838.0,None,0.0,110.0,110.0,110.0,,None,1.0,,stop,0.35,0.838,1.838,1.0,Scanner,R,2.0,2019_Sep_06_1052,SST,3.0.7,60.046473328891324,,
go,sst_images/Left_Arrow.bmp,None,1,1006.0,None,0.0,111.0,111.0,111.0,,1,1.0,0.9526489550007682,go,0.35,1.006,2.006,1.0,Scanner,R,2.0,2019_Sep_06_1052,SST,3.0.7,60.046473328891324,,
go,sst_images/Right_Arrow.bmp,None,2,780.0,None,0.0,112.0,112.0,112.0,,2,1.0,0.5842782930012618,go,0.35,0.78,1.78,1.0,Scanner,R,2.0,2019_Sep_06_1052,SST,3.0.7,60.046473328891324,,
go,sst_images/Left_Arrow.bmp,None,1,1109.0,None,0.0,113.0,113.0,113.0,,1,1.0,0.9751587150021804,go,0.35,1.109,2.109,1.0,Scanner,R,2.0,2019_Sep_06_1052,SST,3.0.7,60.046473328891324,,
stop,sst_images/Left_Arrow.bmp,sst_images/Stop_Arrow.bmp,none,1062.0,None,0.0,114.0,114.0,114.0,,None,1.0,,stop,0.4,1.062,2.062,1.0,Scanner,R,2.0,2019_Sep_06_1052,SST,3.0.7,60.046473328891324,,
go,sst_images/Right_Arrow.bmp,None,2,898.0,None,0.0,115.0,115.0,115.0,,2,1.0,0.953166814000724,go,0.4,0.898,1.898,1.0,Scanner,R,2.0,2019_Sep_06_1052,SST,3.0.7,60.046473328891324,,
go,sst_images/Left_Arrow.bmp,None,1,926.0,None,0.0,116.0,116.0,116.0,,1,1.0,0.6008292409969727,go,0.4,0.9259999999999999,1.926,1.0,Scanner,R,2.0,2019_Sep_06_1052,SST,3.0.7,60.046473328891324,,
go,sst_images/Right_Arrow.bmp,None,2,702.0,None,0.0,117.0,117.0,117.0,,2,1.0,0.4872220600009314,go,0.4,0.7020000000000001,1.702,1.0,Scanner,R,2.0,2019_Sep_06_1052,SST,3.0.7,60.046473328891324,,
stop,sst_images/Right_Arrow.bmp,sst_images/Stop_Arrow.bmp,none,748.0,None,0.0,118.0,118.0,118.0,,2,0.0,0.5224980200000573,stop,0.35,0.748,1.9255019799999429,1.0,Scanner,R,2.0,2019_Sep_06_1052,SST,3.0.7,60.046473328891324,,
go,sst_images/Left_Arrow.bmp,None,1,823.0,None,0.0,119.0,119.0,119.0,,1,1.0,0.5541476219987089,go,0.35,0.823,1.8230000000000002,1.0,Scanner,R,2.0,2019_Sep_06_1052,SST,3.0.7,60.046473328891324,,
go,sst_images/Right_Arrow.bmp,None,2,918.0,None,0.0,120.0,120.0,120.0,,2,1.0,0.4856408009982261,go,0.35,0.9179999999999999,1.918,1.0,Scanner,R,2.0,2019_Sep_06_1052,SST,3.0.7,60.046473328891324,,
go,sst_images/Left_Arrow.bmp,None,1,1074.0,None,0.0,121.0,121.0,121.0,,1,1.0,0.4039552370013553,go,0.35,1.074,2.074,1.0,Scanner,R,2.0,2019_Sep_06_1052,SST,3.0.7,60.046473328891324,,
go,sst_images/Right_Arrow.bmp,None,2,783.0,None,0.0,122.0,122.0,122.0,,2,1.0,0.6555021720014338,go,0.35,0.7829999999999999,1.7830000000000001,1.0,Scanner,R,2.0,2019_Sep_06_1052,SST,3.0.7,60.046473328891324,,
go,sst_images/Left_Arrow.bmp,None,1,719.0,None,0.0,123.0,123.0,123.0,,1,1.0,0.7561416389980877,go,0.35,0.7190000000000001,1.719,1.0,Scanner,R,2.0,2019_Sep_06_1052,SST,3.0.7,60.046473328891324,,
stop,sst_images/Left_Arrow.bmp,sst_images/Stop_Arrow.bmp,none,817.0,None,0.0,124.0,124.0,124.0,,1,0.0,0.6207765009967261,stop,0.3,0.8170000000000001,1.8462234990032735,1.0,Scanner,R,2.0,2019_Sep_06_1052,SST,3.0.7,60.046473328891324,,
go,sst_images/Right_Arrow.bmp,None,2,737.0,None,0.0,125.0,125.0,125.0,,2,1.0,0.7057329999988724,go,0.3,0.737,1.7369999999999999,1.0,Scanner,R,2.0,2019_Sep_06_1052,SST,3.0.7,60.046473328891324,,
go,sst_images/Right_Arrow.bmp,None,2,741.0,None,0.0,126.0,126.0,126.0,,2,1.0,0.6211265279998771,go,0.3,0.741,1.7409999999999999,1.0,Scanner,R,2.0,2019_Sep_06_1052,SST,3.0.7,60.046473328891324,,
go,sst_images/Left_Arrow.bmp,None,1,834.0,None,0.0,127.0,127.0,127.0,,1,1.0,0.454173609999998,go,0.3,0.8340000000000001,1.834,1.0,Scanner,R,2.0,2019_Sep_06_1052,SST,3.0.7,60.046473328891324,,
go,sst_images/Left_Arrow.bmp,None,1,859.0,None,0.0,128.0,128.0,128.0,,1,1.0,0.5725578349993157,go,0.3,0.8590000000000001,1.859,1.0,Scanner,R,2.0,2019_Sep_06_1052,SST,3.0.7,60.046473328891324,,
go,sst_images/Left_Arrow.bmp,None,1,825.0,None,0.0,129.0,129.0,129.0,,1,1.0,0.43812540599901695,go,0.3,0.825,1.825,1.0,Scanner,R,2.0,2019_Sep_06_1052,SST,3.0.7,60.046473328891324,,
stop,sst_images/Right_Arrow.bmp,sst_images/Stop_Arrow.bmp,none,773.0,None,0.0,130.0,130.0,130.0,,None,1.0,,stop,0.35,0.773,1.773,1.0,Scanner,R,2.0,2019_Sep_06_1052,SST,3.0.7,60.046473328891324,,
go,sst_images/Right_Arrow.bmp,None,2,751.0,None,0.0,131.0,131.0,131.0,,2,1.0,0.5220644999972137,go,0.35,0.7509999999999999,1.751,1.0,Scanner,R,2.0,2019_Sep_06_1052,SST,3.0.7,60.046473328891324,,
go,sst_images/Left_Arrow.bmp,None,1,965.0,None,0.0,132.0,132.0,132.0,,1,1.0,0.4867206230010197,go,0.35,0.965,1.965,1.0,Scanner,R,2.0,2019_Sep_06_1052,SST,3.0.7,60.046473328891324,,
go,sst_images/Left_Arrow.bmp,None,1,1260.0,None,0.0,133.0,133.0,133.0,,1,1.0,0.5876826220010116,go,0.35,1.26,2.26,1.0,Scanner,R,2.0,2019_Sep_06_1052,SST,3.0.7,60.046473328891324,,
go,sst_images/Left_Arrow.bmp,None,1,1016.0,None,0.0,134.0,134.0,134.0,,1,1.0,0.43681199200000265,go,0.35,1.016,2.016,1.0,Scanner,R,2.0,2019_Sep_06_1052,SST,3.0.7,60.046473328891324,,
go,sst_images/Right_Arrow.bmp,None,2,1049.0,None,0.0,135.0,135.0,135.0,,2,1.0,0.6372486919972289,go,0.35,1.0490000000000002,2.049,1.0,Scanner,R,2.0,2019_Sep_06_1052,SST,3.0.7,60.046473328891324,,
go,sst_images/Left_Arrow.bmp,None,1,732.0,None,0.0,136.0,136.0,136.0,,1,1.0,0.4040854599988961,go,0.35,0.732,1.732,1.0,Scanner,R,2.0,2019_Sep_06_1052,SST,3.0.7,60.046473328891324,,
stop,sst_images/Right_Arrow.bmp,sst_images/Stop_Arrow.bmp,none,1211.0,None,0.0,137.0,137.0,137.0,,2,0.0,0.553270437001629,stop,0.3,1.2109999999999999,2.3077295629983707,1.0,Scanner,R,2.0,2019_Sep_06_1052,SST,3.0.7,60.046473328891324,,
go,sst_images/Left_Arrow.bmp,None,1,864.0,None,0.0,138.0,138.0,138.0,,1,1.0,0.5051994669993292,go,0.3,0.8640000000000001,1.864,1.0,Scanner,R,2.0,2019_Sep_06_1052,SST,3.0.7,60.046473328891324,,
go,sst_images/Right_Arrow.bmp,None,2,877.0,None,0.0,139.0,139.0,139.0,,2,1.0,0.3705279130008421,go,0.3,0.877,1.8769999999999998,1.0,Scanner,R,2.0,2019_Sep_06_1052,SST,3.0.7,60.046473328891324,,
go,sst_images/Right_Arrow.bmp,None,2,1038.0,None,0.0,140.0,140.0,140.0,,2,1.0,0.8212797740015958,go,0.3,1.038,2.0380000000000003,1.0,Scanner,R,2.0,2019_Sep_06_1052,SST,3.0.7,60.046473328891324,,
go,sst_images/Left_Arrow.bmp,None,1,744.0,None,0.0,141.0,141.0,141.0,,1,1.0,0.5023461609998776,go,0.3,0.7440000000000001,1.744,1.0,Scanner,R,2.0,2019_Sep_06_1052,SST,3.0.7,60.046473328891324,,
stop,sst_images/Left_Arrow.bmp,sst_images/Stop_Arrow.bmp,none,741.0,None,0.0,142.0,142.0,142.0,,1,0.0,0.4375272059987765,stop,0.25,0.741,1.903472794001224,1.0,Scanner,R,2.0,2019_Sep_06_1052,SST,3.0.7,60.046473328891324,,
go,sst_images/Right_Arrow.bmp,None,2,748.0,None,0.0,143.0,143.0,143.0,,2,1.0,0.5364704849998816,go,0.25,0.748,1.7480000000000002,1.0,Scanner,R,2.0,2019_Sep_06_1052,SST,3.0.7,60.046473328891324,,
go,sst_images/Left_Arrow.bmp,None,1,822.0,None,0.0,144.0,144.0,144.0,,1,1.0,0.5889767480002774,go,0.25,0.8220000000000001,1.8219999999999998,1.0,Scanner,R,2.0,2019_Sep_06_1052,SST,3.0.7,60.046473328891324,,
go,sst_images/Left_Arrow.bmp,None,1,916.0,None,0.0,145.0,145.0,145.0,,1,1.0,0.4197163600001659,go,0.25,0.9159999999999999,1.916,1.0,Scanner,R,2.0,2019_Sep_06_1052,SST,3.0.7,60.046473328891324,,
go,sst_images/Right_Arrow.bmp,None,2,715.0,None,0.0,146.0,146.0,146.0,,2,1.0,0.8830832950006879,go,0.25,0.715,1.715,1.0,Scanner,R,2.0,2019_Sep_06_1052,SST,3.0.7,60.046473328891324,,
stop,sst_images/Left_Arrow.bmp,sst_images/Stop_Arrow.bmp,none,1726.0,None,0.0,147.0,147.0,147.0,,None,1.0,,stop,0.3,1.726,2.7260000000000004,1.0,Scanner,R,2.0,2019_Sep_06_1052,SST,3.0.7,60.046473328891324,,
go,sst_images/Left_Arrow.bmp,None,1,782.0,None,0.0,148.0,148.0,148.0,,1,1.0,0.5215613069995015,go,0.3,0.782,1.7819999999999998,1.0,Scanner,R,2.0,2019_Sep_06_1052,SST,3.0.7,60.046473328891324,,
go,sst_images/Right_Arrow.bmp,None,2,1726.0,None,0.0,149.0,149.0,149.0,,2,1.0,0.5016793670001789,go,0.3,1.726,2.7260000000000004,1.0,Scanner,R,2.0,2019_Sep_06_1052,SST,3.0.7,60.046473328891324,,
go,sst_images/Left_Arrow.bmp,None,1,953.0,None,0.0,150.0,150.0,150.0,,1,1.0,0.4217450729993288,go,0.3,0.953,1.953,1.0,Scanner,R,2.0,2019_Sep_06_1052,SST,3.0.7,60.046473328891324,,
go,sst_images/Right_Arrow.bmp,None,2,844.0,None,0.0,151.0,151.0,151.0,,2,1.0,0.5355275949987117,go,0.3,0.8440000000000001,1.844,1.0,Scanner,R,2.0,2019_Sep_06_1052,SST,3.0.7,60.046473328891324,,
go,sst_images/Right_Arrow.bmp,None,2,800.0,None,0.0,152.0,152.0,152.0,,2,1.0,0.6717595890004304,go,0.3,0.8,1.8,1.0,Scanner,R,2.0,2019_Sep_06_1052,SST,3.0.7,60.046473328891324,,
go,sst_images/Left_Arrow.bmp,None,1,1025.0,None,0.0,153.0,153.0,153.0,,1,1.0,0.4858083699982672,go,0.3,1.025,2.025,1.0,Scanner,R,2.0,2019_Sep_06_1052,SST,3.0.7,60.046473328891324,,
go,sst_images/Right_Arrow.bmp,None,2,818.0,None,0.0,154.0,154.0,154.0,,2,1.0,0.4043048710009316,go,0.3,0.818,1.818,1.0,Scanner,R,2.0,2019_Sep_06_1052,SST,3.0.7,60.046473328891324,,
go,sst_images/Left_Arrow.bmp,None,1,861.0,None,0.0,155.0,155.0,155.0,,1,1.0,0.7033610360012972,go,0.3,0.861,1.861,1.0,Scanner,R,2.0,2019_Sep_06_1052,SST,3.0.7,60.046473328891324,,
go,sst_images/Right_Arrow.bmp,None,2,1006.0,None,0.0,156.0,156.0,156.0,,2,1.0,0.40104249399882974,go,0.3,1.006,2.006,1.0,Scanner,R,2.0,2019_Sep_06_1052,SST,3.0.7,60.046473328891324,,
go,sst_images/Left_Arrow.bmp,None,1,939.0,None,0.0,157.0,157.0,157.0,,1,1.0,0.4345037319981202,go,0.3,0.9390000000000001,1.939,1.0,Scanner,R,2.0,2019_Sep_06_1052,SST,3.0.7,60.046473328891324,,
stop,sst_images/Left_Arrow.bmp,sst_images/Stop_Arrow.bmp,none,703.0,None,0.0,158.0,158.0,158.0,,None,1.0,,stop,0.35,0.703,1.703,1.0,Scanner,R,2.0,2019_Sep_06_1052,SST,3.0.7,60.046473328891324,,
go,sst_images/Right_Arrow.bmp,None,2,1064.0,None,0.0,159.0,159.0,159.0,,2,1.0,0.8027236599991738,go,0.35,1.064,2.064,1.0,Scanner,R,2.0,2019_Sep_06_1052,SST,3.0.7,60.046473328891324,,
go,sst_images/Left_Arrow.bmp,None,1,1694.0,None,0.0,160.0,160.0,160.0,,1,1.0,0.5535098200016364,go,0.35,1.694,2.694,1.0,Scanner,R,2.0,2019_Sep_06_1052,SST,3.0.7,60.046473328891324,,
go,sst_images/Left_Arrow.bmp,None,1,936.0,None,0.0,161.0,161.0,161.0,,1,1.0,0.487006534000102,go,0.35,0.9359999999999999,1.936,1.0,Scanner,R,2.0,2019_Sep_06_1052,SST,3.0.7,60.046473328891324,,
go,sst_images/Right_Arrow.bmp,None,2,725.0,None,0.0,162.0,162.0,162.0,,2,1.0,0.5376828009975725,go,0.35,0.725,1.725,1.0,Scanner,R,2.0,2019_Sep_06_1052,SST,3.0.7,60.046473328891324,,
go,sst_images/Left_Arrow.bmp,None,1,777.0,None,0.0,163.0,163.0,163.0,,1,1.0,0.4545715679996647,go,0.35,0.777,1.777,1.0,Scanner,R,2.0,2019_Sep_06_1052,SST,3.0.7,60.046473328891324,,
go,sst_images/Right_Arrow.bmp,None,2,1070.0,None,0.0,164.0,164.0,164.0,,2,1.0,0.5377110910012561,go,0.35,1.07,2.0700000000000003,1.0,Scanner,R,2.0,2019_Sep_06_1052,SST,3.0.7,60.046473328891324,,
go,sst_images/Right_Arrow.bmp,None,2,1006.0,None,0.0,165.0,165.0,165.0,,2,1.0,0.4676460459995724,go,0.35,1.006,2.006,1.0,Scanner,R,2.0,2019_Sep_06_1052,SST,3.0.7,60.046473328891324,,
go,sst_images/Right_Arrow.bmp,None,2,799.0,None,0.0,166.0,166.0,166.0,,2,1.0,0.686310594999668,go,0.35,0.799,1.7990000000000002,1.0,Scanner,R,2.0,2019_Sep_06_1052,SST,3.0.7,60.046473328891324,,
go,sst_images/Left_Arrow.bmp,None,1,769.0,None,0.0,167.0,167.0,167.0,,1,1.0,0.5198458020022372,go,0.35,0.769,1.769,1.0,Scanner,R,2.0,2019_Sep_06_1052,SST,3.0.7,60.046473328891324,,
go,sst_images/Right_Arrow.bmp,None,2,709.0,None,0.0,168.0,168.0,168.0,,2,1.0,0.538969969999016,go,0.35,0.7090000000000001,1.709,1.0,Scanner,R,2.0,2019_Sep_06_1052,SST,3.0.7,60.046473328891324,,
stop,sst_images/Right_Arrow.bmp,sst_images/Stop_Arrow.bmp,none,834.0,None,0.0,169.0,169.0,169.0,,None,1.0,,stop,0.4,0.8340000000000001,1.834,1.0,Scanner,R,2.0,2019_Sep_06_1052,SST,3.0.7,60.046473328891324,,
go,sst_images/Right_Arrow.bmp,None,2,742.0,None,0.0,170.0,170.0,170.0,,2,1.0,0.5538188749997062,go,0.4,0.742,1.742,1.0,Scanner,R,2.0,2019_Sep_06_1052,SST,3.0.7,60.046473328891324,,
go,sst_images/Left_Arrow.bmp,None,1,1211.0,None,0.0,171.0,171.0,171.0,,1,1.0,0.5031461319995287,go,0.4,1.2109999999999999,2.2110000000000003,1.0,Scanner,R,2.0,2019_Sep_06_1052,SST,3.0.7,60.046473328891324,,
go,sst_images/Right_Arrow.bmp,None,2,885.0,None,0.0,172.0,172.0,172.0,,2,1.0,0.42166621199794463,go,0.4,0.885,1.885,1.0,Scanner,R,2.0,2019_Sep_06_1052,SST,3.0.7,60.046473328891324,,
go,sst_images/Right_Arrow.bmp,None,2,1120.0,None,0.0,173.0,173.0,173.0,,2,1.0,0.486363331998291,go,0.4,1.12,2.12,1.0,Scanner,R,2.0,2019_Sep_06_1052,SST,3.0.7,60.046473328891324,,
go,sst_images/Right_Arrow.bmp,None,2,1103.0,None,0.0,174.0,174.0,174.0,,2,1.0,0.5045436389991664,go,0.4,1.103,2.103,1.0,Scanner,R,2.0,2019_Sep_06_1052,SST,3.0.7,60.046473328891324,,
go,sst_images/Left_Arrow.bmp,None,1,717.0,None,0.0,175.0,175.0,175.0,,1,1.0,0.5209516280010575,go,0.4,0.7170000000000001,1.7169999999999999,1.0,Scanner,R,2.0,2019_Sep_06_1052,SST,3.0.7,60.046473328891324,,
go,sst_images/Right_Arrow.bmp,None,2,897.0,None,0.0,176.0,176.0,176.0,,2,1.0,0.5219180979984229,go,0.4,0.897,1.8969999999999998,1.0,Scanner,R,2.0,2019_Sep_06_1052,SST,3.0.7,60.046473328891324,,
stop,sst_images/Left_Arrow.bmp,sst_images/Stop_Arrow.bmp,none,744.0,None,0.0,177.0,177.0,177.0,,None,1.0,,stop,0.45,0.7440000000000001,1.744,1.0,Scanner,R,2.0,2019_Sep_06_1052,SST,3.0.7,60.046473328891324,,
go,sst_images/Left_Arrow.bmp,None,1,805.0,None,0.0,178.0,178.0,178.0,,1,1.0,0.8532495189974725,go,0.45,0.805,1.805,1.0,Scanner,R,2.0,2019_Sep_06_1052,SST,3.0.7,60.046473328891324,,
go,sst_images/Right_Arrow.bmp,None,2,793.0,5096.0,0.0,179.0,179.0,179.0,,2,1.0,0.6496788430013112,go,0.45,0.7929999999999999,1.793,1.0,Scanner,R,2.0,2019_Sep_06_1052,SST,3.0.7,60.046473328891324,,
go,sst_images/Left_Arrow.bmp,None,1,732.0,None,0.0,0.0,0.0,0.0,1.0,None,0.0,,go,0.05,0.732,1.732,2.0,Scanner,R,1.0,2019_Sep_05_1057,SST,3.0.7,60.064333466018795,,
go,sst_images/Right_Arrow.bmp,None,2,709.0,None,0.0,1.0,1.0,1.0,,2,1.0,0.5456811269996251,go,0.05,0.7090000000000001,1.709,2.0,Scanner,R,1.0,2019_Sep_05_1057,SST,3.0.7,60.064333466018795,,
stop,sst_images/Right_Arrow.bmp,sst_images/Stop_Arrow.bmp,none,832.0,None,0.0,2.0,2.0,2.0,,None,1.0,,stop,0.1,0.8320000000000001,1.832,2.0,Scanner,R,1.0,2019_Sep_05_1057,SST,3.0.7,60.064333466018795,,
go,sst_images/Right_Arrow.bmp,None,2,812.0,None,0.0,3.0,3.0,3.0,,2,1.0,0.5082614530001592,go,0.1,0.812,1.8119999999999998,2.0,Scanner,R,1.0,2019_Sep_05_1057,SST,3.0.7,60.064333466018795,,
go,sst_images/Left_Arrow.bmp,None,1,916.0,None,0.0,4.0,4.0,4.0,,1,1.0,0.5097707920012908,go,0.1,0.9159999999999999,1.916,2.0,Scanner,R,1.0,2019_Sep_05_1057,SST,3.0.7,60.064333466018795,,
stop,sst_images/Left_Arrow.bmp,sst_images/Stop_Arrow.bmp,none,817.0,None,0.0,5.0,5.0,5.0,,None,1.0,,stop,0.15000000000000002,0.8170000000000001,1.817,2.0,Scanner,R,1.0,2019_Sep_05_1057,SST,3.0.7,60.064333466018795,,
go,sst_images/Left_Arrow.bmp,None,1,1153.0,None,0.0,6.0,6.0,6.0,,None,0.0,,go,0.15000000000000002,1.153,2.153,2.0,Scanner,R,1.0,2019_Sep_05_1057,SST,3.0.7,60.064333466018795,,
go,sst_images/Right_Arrow.bmp,None,2,1097.0,None,0.0,7.0,7.0,7.0,,None,0.0,,go,0.15000000000000002,1.097,2.097,2.0,Scanner,R,1.0,2019_Sep_05_1057,SST,3.0.7,60.064333466018795,,
go,sst_images/Left_Arrow.bmp,None,1,771.0,None,0.0,8.0,8.0,8.0,,1,1.0,0.4740360819996568,go,0.15000000000000002,0.7709999999999999,1.771,2.0,Scanner,R,1.0,2019_Sep_05_1057,SST,3.0.7,60.064333466018795,,
go,sst_images/Right_Arrow.bmp,None,2,768.0,None,0.0,9.0,9.0,9.0,,2,1.0,0.4908682850000332,go,0.15000000000000002,0.768,1.768,2.0,Scanner,R,1.0,2019_Sep_05_1057,SST,3.0.7,60.064333466018795,,
stop,sst_images/Left_Arrow.bmp,sst_images/Stop_Arrow.bmp,none,709.0,None,0.0,10.0,10.0,10.0,,1,0.0,0.4779752079994069,stop,0.10000000000000002,0.7090000000000001,1.6810247920005932,2.0,Scanner,R,1.0,2019_Sep_05_1057,SST,3.0.7,60.064333466018795,,
go,sst_images/Right_Arrow.bmp,None,2,861.0,None,0.0,11.0,11.0,11.0,,2,1.0,0.4932282869995106,go,0.10000000000000002,0.861,1.861,2.0,Scanner,R,1.0,2019_Sep_05_1057,SST,3.0.7,60.064333466018795,,
go,sst_images/Left_Arrow.bmp,None,1,834.0,None,0.0,12.0,12.0,12.0,,1,1.0,0.6099662939996051,go,0.10000000000000002,0.8340000000000001,1.834,2.0,Scanner,R,1.0,2019_Sep_05_1057,SST,3.0.7,60.064333466018795,,
go,sst_images/Right_Arrow.bmp,None,2,830.0,None,0.0,13.0,13.0,13.0,,2,1.0,0.5911527369989926,go,0.10000000000000002,0.83,1.83,2.0,Scanner,R,1.0,2019_Sep_05_1057,SST,3.0.7,60.064333466018795,,
go,sst_images/Left_Arrow.bmp,None,1,1202.0,None,0.0,14.0,14.0,14.0,,1,1.0,0.9421807359995,go,0.10000000000000002,1.202,2.202,2.0,Scanner,R,1.0,2019_Sep_05_1057,SST,3.0.7,60.064333466018795,,
stop,sst_images/Right_Arrow.bmp,sst_images/Stop_Arrow.bmp,none,929.0,None,0.0,15.0,15.0,15.0,,None,1.0,,stop,0.15000000000000002,0.929,1.929,2.0,Scanner,R,1.0,2019_Sep_05_1057,SST,3.0.7,60.064333466018795,,
go,sst_images/Left_Arrow.bmp,None,1,705.0,None,0.0,16.0,16.0,16.0,,None,0.0,,go,0.15000000000000002,0.705,1.705,2.0,Scanner,R,1.0,2019_Sep_05_1057,SST,3.0.7,60.064333466018795,,
go,sst_images/Left_Arrow.bmp,None,1,953.0,None,0.0,17.0,17.0,17.0,,1,1.0,0.4590575009988242,go,0.15000000000000002,0.953,1.953,2.0,Scanner,R,1.0,2019_Sep_05_1057,SST,3.0.7,60.064333466018795,,
go,sst_images/Right_Arrow.bmp,None,2,795.0,None,0.0,18.0,18.0,18.0,,2,1.0,0.4387949419997312,go,0.15000000000000002,0.795,1.795,2.0,Scanner,R,1.0,2019_Sep_05_1057,SST,3.0.7,60.064333466018795,,
go,sst_images/Left_Arrow.bmp,None,1,910.0,None,0.0,19.0,19.0,19.0,,1,1.0,0.4413770810006099,go,0.15000000000000002,0.91,1.91,2.0,Scanner,R,1.0,2019_Sep_05_1057,SST,3.0.7,60.064333466018795,,
go,sst_images/Left_Arrow.bmp,None,1,975.0,None,0.0,20.0,20.0,20.0,,1,1.0,0.4084023740015255,go,0.15000000000000002,0.975,1.975,2.0,Scanner,R,1.0,2019_Sep_05_1057,SST,3.0.7,60.064333466018795,,
stop,sst_images/Right_Arrow.bmp,sst_images/Stop_Arrow.bmp,none,708.0,None,0.0,21.0,21.0,21.0,,2,0.0,0.4552244620008423,stop,0.10000000000000002,0.708,1.7027755379991578,2.0,Scanner,R,1.0,2019_Sep_05_1057,SST,3.0.7,60.064333466018795,,
go,sst_images/Right_Arrow.bmp,None,2,838.0,None,0.0,22.0,22.0,22.0,,2,1.0,0.9534052460003296,go,0.10000000000000002,0.838,1.838,2.0,Scanner,R,1.0,2019_Sep_05_1057,SST,3.0.7,60.064333466018795,,
go,sst_images/Left_Arrow.bmp,None,1,794.0,None,0.0,23.0,23.0,23.0,,None,0.0,,go,0.10000000000000002,0.794,1.794,2.0,Scanner,R,1.0,2019_Sep_05_1057,SST,3.0.7,60.064333466018795,,
go,sst_images/Right_Arrow.bmp,None,2,835.0,None,0.0,24.0,24.0,24.0,,None,0.0,,go,0.10000000000000002,0.835,1.835,2.0,Scanner,R,1.0,2019_Sep_05_1057,SST,3.0.7,60.064333466018795,,
go,sst_images/Left_Arrow.bmp,None,1,726.0,None,0.0,25.0,25.0,25.0,,None,0.0,,go,0.10000000000000002,0.726,1.726,2.0,Scanner,R,1.0,2019_Sep_05_1057,SST,3.0.7,60.064333466018795,,
go,sst_images/Right_Arrow.bmp,None,2,1514.0,None,0.0,26.0,26.0,26.0,,None,0.0,,go,0.10000000000000002,1.514,2.514,2.0,Scanner,R,1.0,2019_Sep_05_1057,SST,3.0.7,60.064333466018795,,
go,sst_images/Right_Arrow.bmp,None,2,1028.0,None,0.0,27.0,27.0,27.0,,2,1.0,0.3597058670002298,go,0.10000000000000002,1.028,2.028,2.0,Scanner,R,1.0,2019_Sep_05_1057,SST,3.0.7,60.064333466018795,,
go,sst_images/Left_Arrow.bmp,None,1,849.0,None,0.0,28.0,28.0,28.0,,1,1.0,0.489026286999433,go,0.10000000000000002,0.8490000000000001,1.849,2.0,Scanner,R,1.0,2019_Sep_05_1057,SST,3.0.7,60.064333466018795,,
go,sst_images/Right_Arrow.bmp,None,2,807.0,None,0.0,29.0,29.0,29.0,,2,1.0,0.4187902550002036,go,0.10000000000000002,0.807,1.807,2.0,Scanner,R,1.0,2019_Sep_05_1057,SST,3.0.7,60.064333466018795,,
stop,sst_images/Left_Arrow.bmp,sst_images/Stop_Arrow.bmp,none,870.0,None,0.0,30.0,30.0,30.0,,None,1.0,,stop,0.15000000000000002,0.87,1.87,2.0,Scanner,R,1.0,2019_Sep_05_1057,SST,3.0.7,60.064333466018795,,
go,sst_images/Right_Arrow.bmp,None,2,826.0,None,0.0,31.0,31.0,31.0,,2,1.0,0.4693986279999081,go,0.15000000000000002,0.826,1.8259999999999998,2.0,Scanner,R,1.0,2019_Sep_05_1057,SST,3.0.7,60.064333466018795,,
go,sst_images/Left_Arrow.bmp,None,1,737.0,None,0.0,32.0,32.0,32.0,,1,1.0,0.8862590980006644,go,0.15000000000000002,0.737,1.7369999999999999,2.0,Scanner,R,1.0,2019_Sep_05_1057,SST,3.0.7,60.064333466018795,,
go,sst_images/Right_Arrow.bmp,None,2,853.0,None,0.0,33.0,33.0,33.0,,2,1.0,0.5690816490005091,go,0.15000000000000002,0.853,1.8530000000000002,2.0,Scanner,R,1.0,2019_Sep_05_1057,SST,3.0.7,60.064333466018795,,
go,sst_images/Left_Arrow.bmp,None,1,740.0,None,0.0,34.0,34.0,34.0,,None,0.0,,go,0.15000000000000002,0.74,1.74,2.0,Scanner,R,1.0,2019_Sep_05_1057,SST,3.0.7,60.064333466018795,,
go,sst_images/Left_Arrow.bmp,None,1,835.0,None,0.0,35.0,35.0,35.0,,None,0.0,,go,0.15000000000000002,0.835,1.835,2.0,Scanner,R,1.0,2019_Sep_05_1057,SST,3.0.7,60.064333466018795,,
go,sst_images/Right_Arrow.bmp,None,2,848.0,None,0.0,36.0,36.0,36.0,,None,0.0,,go,0.15000000000000002,0.848,1.848,2.0,Scanner,R,1.0,2019_Sep_05_1057,SST,3.0.7,60.064333466018795,,
go,sst_images/Right_Arrow.bmp,None,2,983.0,None,0.0,37.0,37.0,37.0,,None,0.0,,go,0.15000000000000002,0.983,1.983,2.0,Scanner,R,1.0,2019_Sep_05_1057,SST,3.0.7,60.064333466018795,,
go,sst_images/Left_Arrow.bmp,None,1,725.0,None,0.0,38.0,38.0,38.0,,None,0.0,,go,0.15000000000000002,0.725,1.725,2.0,Scanner,R,1.0,2019_Sep_05_1057,SST,3.0.7,60.064333466018795,,
go,sst_images/Left_Arrow.bmp,None,1,717.0,None,0.0,39.0,39.0,39.0,,None,0.0,,go,0.15000000000000002,0.7170000000000001,1.7169999999999999,2.0,Scanner,R,1.0,2019_Sep_05_1057,SST,3.0.7,60.064333466018795,,
go,sst_images/Right_Arrow.bmp,None,2,701.0,None,0.0,40.0,40.0,40.0,,None,0.0,,go,0.15000000000000002,0.701,1.7009999999999998,2.0,Scanner,R,1.0,2019_Sep_05_1057,SST,3.0.7,60.064333466018795,,
stop,sst_images/Right_Arrow.bmp,sst_images/Stop_Arrow.bmp,none,1646.0,None,0.0,41.0,41.0,41.0,,None,1.0,,stop,0.2,1.646,2.6459999999999995,2.0,Scanner,R,1.0,2019_Sep_05_1057,SST,3.0.7,60.064333466018795,,
go,sst_images/Left_Arrow.bmp,None,1,736.0,None,0.0,42.0,42.0,42.0,,1,1.0,0.3866439799985528,go,0.2,0.736,1.736,2.0,Scanner,R,1.0,2019_Sep_05_1057,SST,3.0.7,60.064333466018795,,
go,sst_images/Left_Arrow.bmp,None,1,855.0,None,0.0,43.0,43.0,43.0,,1,1.0,0.4193826099999569,go,0.2,0.855,1.855,2.0,Scanner,R,1.0,2019_Sep_05_1057,SST,3.0.7,60.064333466018795,,
go,sst_images/Right_Arrow.bmp,None,2,903.0,None,0.0,44.0,44.0,44.0,,2,1.0,0.4546054760012339,go,0.2,0.903,1.903,2.0,Scanner,R,1.0,2019_Sep_05_1057,SST,3.0.7,60.064333466018795,,
go,sst_images/Right_Arrow.bmp,None,2,802.0,None,0.0,45.0,45.0,45.0,,2,1.0,0.3384928020004736,go,0.2,0.802,1.8019999999999998,2.0,Scanner,R,1.0,2019_Sep_05_1057,SST,3.0.7,60.064333466018795,,
stop,sst_images/Right_Arrow.bmp,sst_images/Stop_Arrow.bmp,none,768.0,None,0.0,46.0,46.0,46.0,,2,0.0,0.38992780199987465,stop,0.15000000000000002,0.768,1.8780721980001251,2.0,Scanner,R,1.0,2019_Sep_05_1057,SST,3.0.7,60.064333466018795,,
go,sst_images/Right_Arrow.bmp,None,2,779.0,None,0.0,47.0,47.0,47.0,,2,1.0,0.4219850919998862,go,0.15000000000000002,0.779,1.7790000000000001,2.0,Scanner,R,1.0,2019_Sep_05_1057,SST,3.0.7,60.064333466018795,,
go,sst_images/Left_Arrow.bmp,None,1,703.0,None,0.0,48.0,48.0,48.0,,1,1.0,0.4352688599992689,go,0.15000000000000002,0.703,1.7029999999999998,2.0,Scanner,R,1.0,2019_Sep_05_1057,SST,3.0.7,60.064333466018795,,
go,sst_images/Left_Arrow.bmp,None,1,941.0,None,0.0,49.0,49.0,49.0,,1,1.0,0.3716857769995841,go,0.15000000000000002,0.941,1.941,2.0,Scanner,R,1.0,2019_Sep_05_1057,SST,3.0.7,60.064333466018795,,
go,sst_images/Left_Arrow.bmp,None,1,779.0,None,0.0,50.0,50.0,50.0,,1,1.0,0.3361334319997695,go,0.15000000000000002,0.779,1.7790000000000001,2.0,Scanner,R,1.0,2019_Sep_05_1057,SST,3.0.7,60.064333466018795,,
stop,sst_images/Left_Arrow.bmp,sst_images/Stop_Arrow.bmp,none,902.0,None,0.0,51.0,51.0,51.0,,1,0.0,0.33775448000051256,stop,0.10000000000000002,0.902,2.0142455199994878,2.0,Scanner,R,1.0,2019_Sep_05_1057,SST,3.0.7,60.064333466018795,,
go,sst_images/Right_Arrow.bmp,None,2,948.0,None,0.0,52.0,52.0,52.0,,2,1.0,0.3719378900004813,go,0.10000000000000002,0.948,1.9480000000000002,2.0,Scanner,R,1.0,2019_Sep_05_1057,SST,3.0.7,60.064333466018795,,
go,sst_images/Right_Arrow.bmp,None,2,706.0,None,0.0,53.0,53.0,53.0,,2,1.0,0.33427871499952744,go,0.10000000000000002,0.706,1.706,2.0,Scanner,R,1.0,2019_Sep_05_1057,SST,3.0.7,60.064333466018795,,
stop,sst_images/Right_Arrow.bmp,sst_images/Stop_Arrow.bmp,none,730.0,None,0.0,54.0,54.0,54.0,,None,1.0,,stop,0.15000000000000002,0.73,1.7300000000000002,2.0,Scanner,R,1.0,2019_Sep_05_1057,SST,3.0.7,60.064333466018795,,
go,sst_images/Left_Arrow.bmp,None,1,883.0,None,0.0,55.0,55.0,55.0,,1,1.0,0.5002961190002679,go,0.15000000000000002,0.883,1.883,2.0,Scanner,R,1.0,2019_Sep_05_1057,SST,3.0.7,60.064333466018795,,
go,sst_images/Left_Arrow.bmp,None,1,951.0,None,0.0,56.0,56.0,56.0,,1,1.0,0.3696111919998657,go,0.15000000000000002,0.951,1.9509999999999998,2.0,Scanner,R,1.0,2019_Sep_05_1057,SST,3.0.7,60.064333466018795,,
go,sst_images/Left_Arrow.bmp,None,1,749.0,None,0.0,57.0,57.0,57.0,,1,1.0,0.3551704540004721,go,0.15000000000000002,0.7490000000000001,1.749,2.0,Scanner,R,1.0,2019_Sep_05_1057,SST,3.0.7,60.064333466018795,,
go,sst_images/Right_Arrow.bmp,None,2,722.0,None,0.0,58.0,58.0,58.0,,2,1.0,0.4549923279992072,go,0.15000000000000002,0.722,1.722,2.0,Scanner,R,1.0,2019_Sep_05_1057,SST,3.0.7,60.064333466018795,,
stop,sst_images/Left_Arrow.bmp,sst_images/Stop_Arrow.bmp,none,706.0,None,0.0,59.0,59.0,59.0,,1,0.0,0.4529300959984539,stop,0.10000000000000002,0.706,1.703069904001546,2.0,Scanner,R,1.0,2019_Sep_05_1057,SST,3.0.7,60.064333466018795,,
go,sst_images/Left_Arrow.bmp,None,1,711.0,None,0.0,60.0,60.0,60.0,,1,1.0,0.5378605689984397,go,0.10000000000000002,0.711,1.711,2.0,Scanner,R,1.0,2019_Sep_05_1057,SST,3.0.7,60.064333466018795,,
go,sst_images/Left_Arrow.bmp,None,1,1227.0,None,0.0,61.0,61.0,61.0,,2,0.0,0.6377795489988785,go,0.10000000000000002,1.227,2.2270000000000003,2.0,Scanner,R,1.0,2019_Sep_05_1057,SST,3.0.7,60.064333466018795,,
go,sst_images/Right_Arrow.bmp,None,2,907.0,None,0.0,62.0,62.0,62.0,,2,1.0,0.4213144410005043,go,0.10000000000000002,0.907,1.9069999999999998,2.0,Scanner,R,1.0,2019_Sep_05_1057,SST,3.0.7,60.064333466018795,,
go,sst_images/Right_Arrow.bmp,None,2,747.0,None,0.0,63.0,63.0,63.0,,None,0.0,,go,0.10000000000000002,0.747,1.747,2.0,Scanner,R,1.0,2019_Sep_05_1057,SST,3.0.7,60.064333466018795,,
stop,sst_images/Right_Arrow.bmp,sst_images/Stop_Arrow.bmp,none,1533.0,None,0.0,64.0,64.0,64.0,,None,1.0,,stop,0.15000000000000002,1.5330000000000001,2.533,2.0,Scanner,R,1.0,2019_Sep_05_1057,SST,3.0.7,60.064333466018795,,
go,sst_images/Left_Arrow.bmp,None,1,1026.0,None,0.0,65.0,65.0,65.0,,None,0.0,,go,0.15000000000000002,1.026,2.026,2.0,Scanner,R,1.0,2019_Sep_05_1057,SST,3.0.7,60.064333466018795,,
go,sst_images/Right_Arrow.bmp,None,2,1533.0,None,0.0,66.0,66.0,66.0,,None,0.0,,go,0.15000000000000002,1.5330000000000001,2.533,2.0,Scanner,R,1.0,2019_Sep_05_1057,SST,3.0.7,60.064333466018795,,
go,sst_images/Left_Arrow.bmp,None,1,844.0,None,0.0,67.0,67.0,67.0,,None,0.0,,go,0.15000000000000002,0.8440000000000001,1.844,2.0,Scanner,R,1.0,2019_Sep_05_1057,SST,3.0.7,60.064333466018795,,
go,sst_images/Right_Arrow.bmp,None,2,904.0,None,0.0,68.0,68.0,68.0,,None,0.0,,go,0.15000000000000002,0.904,1.9040000000000001,2.0,Scanner,R,1.0,2019_Sep_05_1057,SST,3.0.7,60.064333466018795,,
go,sst_images/Right_Arrow.bmp,None,2,823.0,None,0.0,69.0,69.0,69.0,,None,0.0,,go,0.15000000000000002,0.823,1.8230000000000002,2.0,Scanner,R,1.0,2019_Sep_05_1057,SST,3.0.7,60.064333466018795,,
go,sst_images/Left_Arrow.bmp,None,1,754.0,None,0.0,70.0,70.0,70.0,,1,1.0,0.7544603599999391,go,0.15000000000000002,0.754,1.754,2.0,Scanner,R,1.0,2019_Sep_05_1057,SST,3.0.7,60.064333466018795,,
stop,sst_images/Right_Arrow.bmp,sst_images/Stop_Arrow.bmp,none,1116.0,None,0.0,71.0,71.0,71.0,,None,1.0,,stop,0.2,1.1159999999999999,2.116,2.0,Scanner,R,1.0,2019_Sep_05_1057,SST,3.0.7,60.064333466018795,,
go,sst_images/Right_Arrow.bmp,None,2,864.0,None,0.0,72.0,72.0,72.0,,2,1.0,0.43617409199941903,go,0.2,0.8640000000000001,1.864,2.0,Scanner,R,1.0,2019_Sep_05_1057,SST,3.0.7,60.064333466018795,,
go,sst_images/Left_Arrow.bmp,None,1,1093.0,None,0.0,73.0,73.0,73.0,,1,1.0,0.4711743059997389,go,0.2,1.093,2.093,2.0,Scanner,R,1.0,2019_Sep_05_1057,SST,3.0.7,60.064333466018795,,
go,sst_images/Right_Arrow.bmp,None,2,1344.0,None,0.0,74.0,74.0,74.0,,2,1.0,0.4212387810002838,go,0.2,1.344,2.3440000000000003,2.0,Scanner,R,1.0,2019_Sep_05_1057,SST,3.0.7,60.064333466018795,,
go,sst_images/Left_Arrow.bmp,None,1,957.0,None,0.0,75.0,75.0,75.0,,1,1.0,0.4198353580013645,go,0.2,0.9570000000000001,1.957,2.0,Scanner,R,1.0,2019_Sep_05_1057,SST,3.0.7,60.064333466018795,,
go,sst_images/Right_Arrow.bmp,None,2,968.0,None,0.0,76.0,76.0,76.0,,2,1.0,0.3870232400004171,go,0.2,0.968,1.9680000000000002,2.0,Scanner,R,1.0,2019_Sep_05_1057,SST,3.0.7,60.064333466018795,,
go,sst_images/Right_Arrow.bmp,None,2,781.0,None,0.0,77.0,77.0,77.0,,2,1.0,0.35258909199910704,go,0.2,0.7809999999999999,1.781,2.0,Scanner,R,1.0,2019_Sep_05_1057,SST,3.0.7,60.064333466018795,,
go,sst_images/Left_Arrow.bmp,None,1,714.0,None,0.0,78.0,78.0,78.0,,1,1.0,0.40470135700161336,go,0.2,0.7140000000000001,1.714,2.0,Scanner,R,1.0,2019_Sep_05_1057,SST,3.0.7,60.064333466018795,,
go,sst_images/Left_Arrow.bmp,None,1,779.0,None,0.0,79.0,79.0,79.0,,1,1.0,0.32108181700095884,go,0.2,0.779,1.7790000000000001,2.0,Scanner,R,1.0,2019_Sep_05_1057,SST,3.0.7,60.064333466018795,,
go,sst_images/Right_Arrow.bmp,None,2,961.0,None,0.0,80.0,80.0,80.0,,2,1.0,0.3695867830010684,go,0.2,0.961,1.961,2.0,Scanner,R,1.0,2019_Sep_05_1057,SST,3.0.7,60.064333466018795,,
go,sst_images/Right_Arrow.bmp,None,2,799.0,None,0.0,81.0,81.0,81.0,,2,1.0,0.33465748699927644,go,0.2,0.799,1.7990000000000002,2.0,Scanner,R,1.0,2019_Sep_05_1057,SST,3.0.7,60.064333466018795,,
go,sst_images/Right_Arrow.bmp,None,2,1308.0,None,0.0,82.0,82.0,82.0,,2,1.0,0.3988204280012724,go,0.2,1.308,2.3080000000000003,2.0,Scanner,R,1.0,2019_Sep_05_1057,SST,3.0.7,60.064333466018795,,
stop,sst_images/Left_Arrow.bmp,sst_images/Stop_Arrow.bmp,none,796.0,None,0.0,83.0,83.0,83.0,,1,0.0,0.5218977969998377,stop,0.15000000000000002,0.7959999999999999,1.7741022030001623,2.0,Scanner,R,1.0,2019_Sep_05_1057,SST,3.0.7,60.064333466018795,,
go,sst_images/Left_Arrow.bmp,None,1,718.0,None,0.0,84.0,84.0,84.0,,1,1.0,0.4389779160010221,go,0.15000000000000002,0.718,1.7180000000000002,2.0,Scanner,R,1.0,2019_Sep_05_1057,SST,3.0.7,60.064333466018795,,
go,sst_images/Left_Arrow.bmp,None,1,1258.0,None,0.0,85.0,85.0,85.0,,1,1.0,0.3364578159998928,go,0.15000000000000002,1.258,2.258,2.0,Scanner,R,1.0,2019_Sep_05_1057,SST,3.0.7,60.064333466018795,,
go,sst_images/Right_Arrow.bmp,None,2,1026.0,None,0.0,86.0,86.0,86.0,,2,1.0,0.4864769720006734,go,0.15000000000000002,1.026,2.026,2.0,Scanner,R,1.0,2019_Sep_05_1057,SST,3.0.7,60.064333466018795,,
go,sst_images/Left_Arrow.bmp,None,1,1531.0,None,0.0,87.0,87.0,87.0,,1,1.0,0.5851225890000933,go,0.15000000000000002,1.531,2.531,2.0,Scanner,R,1.0,2019_Sep_05_1057,SST,3.0.7,60.064333466018795,,
go,sst_images/Right_Arrow.bmp,None,2,874.0,None,0.0,88.0,88.0,88.0,,2,1.0,0.33830791599939397,go,0.15000000000000002,0.8740000000000001,1.874,2.0,Scanner,R,1.0,2019_Sep_05_1057,SST,3.0.7,60.064333466018795,,
go,sst_images/Left_Arrow.bmp,None,1,923.0,None,0.0,89.0,89.0,89.0,,1,1.0,0.4554921610015299,go,0.15000000000000002,0.9229999999999999,1.923,2.0,Scanner,R,1.0,2019_Sep_05_1057,SST,3.0.7,60.064333466018795,,
go,sst_images/Right_Arrow.bmp,None,2,1602.0,None,0.0,90.0,90.0,90.0,,2,1.0,0.35403894999944896,go,0.15000000000000002,1.6019999999999999,2.6020000000000003,2.0,Scanner,R,1.0,2019_Sep_05_1057,SST,3.0.7,60.064333466018795,,
go,sst_images/Left_Arrow.bmp,None,1,827.0,None,0.0,91.0,91.0,91.0,,1,1.0,0.4531955129987182,go,0.15000000000000002,0.8270000000000001,1.827,2.0,Scanner,R,1.0,2019_Sep_05_1057,SST,3.0.7,60.064333466018795,,
stop,sst_images/Right_Arrow.bmp,sst_images/Stop_Arrow.bmp,none,732.0,None,0.0,92.0,92.0,92.0,,None,1.0,,stop,0.2,0.732,1.732,2.0,Scanner,R,1.0,2019_Sep_05_1057,SST,3.0.7,60.064333466018795,,
go,sst_images/Left_Arrow.bmp,None,1,728.0,None,0.0,93.0,93.0,93.0,,1,1.0,0.3708432040002663,go,0.2,0.728,1.7280000000000002,2.0,Scanner,R,1.0,2019_Sep_05_1057,SST,3.0.7,60.064333466018795,,
go,sst_images/Left_Arrow.bmp,None,1,730.0,None,0.0,94.0,94.0,94.0,,1,1.0,0.3197468470007152,go,0.2,0.73,1.73,2.0,Scanner,R,1.0,2019_Sep_05_1057,SST,3.0.7,60.064333466018795,,
go,sst_images/Right_Arrow.bmp,None,2,802.0,None,0.0,95.0,95.0,95.0,,2,1.0,0.4219844440012821,go,0.2,0.802,1.8019999999999998,2.0,Scanner,R,1.0,2019_Sep_05_1057,SST,3.0.7,60.064333466018795,,
go,sst_images/Left_Arrow.bmp,None,1,721.0,None,0.0,96.0,96.0,96.0,,1,1.0,0.8528438230005122,go,0.2,0.721,1.7209999999999999,2.0,Scanner,R,1.0,2019_Sep_05_1057,SST,3.0.7,60.064333466018795,,
stop,sst_images/Right_Arrow.bmp,sst_images/Stop_Arrow.bmp,none,730.0,None,0.0,97.0,97.0,97.0,,None,1.0,,stop,0.25,0.73,1.73,2.0,Scanner,R,1.0,2019_Sep_05_1057,SST,3.0.7,60.064333466018795,,
go,sst_images/Right_Arrow.bmp,None,2,1026.0,None,0.0,98.0,98.0,98.0,,1,0.0,0.7361042880002059,go,0.25,1.026,2.026,2.0,Scanner,R,1.0,2019_Sep_05_1057,SST,3.0.7,60.064333466018795,,
go,sst_images/Right_Arrow.bmp,None,2,790.0,None,0.0,99.0,99.0,99.0,,2,1.0,0.8030309599998873,go,0.25,0.79,1.79,2.0,Scanner,R,1.0,2019_Sep_05_1057,SST,3.0.7,60.064333466018795,,
go,sst_images/Left_Arrow.bmp,None,1,1246.0,None,0.0,100.0,100.0,100.0,,1,1.0,0.3857506490003289,go,0.25,1.246,2.246,2.0,Scanner,R,1.0,2019_Sep_05_1057,SST,3.0.7,60.064333466018795,,
stop,sst_images/Left_Arrow.bmp,sst_images/Stop_Arrow.bmp,none,1183.0,None,0.0,101.0,101.0,101.0,,1,0.0,0.3876611520008737,stop,0.2,1.183,2.345338847999126,2.0,Scanner,R,1.0,2019_Sep_05_1057,SST,3.0.7,60.064333466018795,,
go,sst_images/Right_Arrow.bmp,None,2,709.0,None,0.0,102.0,102.0,102.0,,2,1.0,0.5188516920006805,go,0.2,0.7090000000000001,1.709,2.0,Scanner,R,1.0,2019_Sep_05_1057,SST,3.0.7,60.064333466018795,,
go,sst_images/Right_Arrow.bmp,None,2,731.0,None,0.0,103.0,103.0,103.0,,2,1.0,0.5537878229988564,go,0.2,0.731,1.731,2.0,Scanner,R,1.0,2019_Sep_05_1057,SST,3.0.7,60.064333466018795,,
go,sst_images/Left_Arrow.bmp,None,1,726.0,None,0.0,104.0,104.0,104.0,,1,1.0,0.4488357850004832,go,0.2,0.726,1.726,2.0,Scanner,R,1.0,2019_Sep_05_1057,SST,3.0.7,60.064333466018795,,
go,sst_images/Left_Arrow.bmp,None,1,842.0,None,0.0,105.0,105.0,105.0,,1,1.0,0.38751201699960797,go,0.2,0.8420000000000001,1.8419999999999999,2.0,Scanner,R,1.0,2019_Sep_05_1057,SST,3.0.7,60.064333466018795,,
go,sst_images/Right_Arrow.bmp,None,2,706.0,None,0.0,106.0,106.0,106.0,,2,1.0,0.4714320709990716,go,0.2,0.706,1.706,2.0,Scanner,R,1.0,2019_Sep_05_1057,SST,3.0.7,60.064333466018795,,
go,sst_images/Right_Arrow.bmp,None,2,718.0,None,0.0,107.0,107.0,107.0,,2,1.0,0.3861952809984359,go,0.2,0.718,1.7180000000000002,2.0,Scanner,R,1.0,2019_Sep_05_1057,SST,3.0.7,60.064333466018795,,
stop,sst_images/Left_Arrow.bmp,sst_images/Stop_Arrow.bmp,none,816.0,None,0.0,108.0,108.0,108.0,,None,1.0,,stop,0.25,0.816,1.816,2.0,Scanner,R,1.0,2019_Sep_05_1057,SST,3.0.7,60.064333466018795,,
go,sst_images/Left_Arrow.bmp,None,1,834.0,None,0.0,109.0,109.0,109.0,,1,1.0,0.7544936739996047,go,0.25,0.8340000000000001,1.834,2.0,Scanner,R,1.0,2019_Sep_05_1057,SST,3.0.7,60.064333466018795,,
go,sst_images/Right_Arrow.bmp,None,2,898.0,None,0.0,110.0,110.0,110.0,,2,1.0,0.4215577370014216,go,0.25,0.898,1.898,2.0,Scanner,R,1.0,2019_Sep_05_1057,SST,3.0.7,60.064333466018795,,
go,sst_images/Left_Arrow.bmp,None,1,1726.0,None,0.0,111.0,111.0,111.0,,1,1.0,0.47109180900042696,go,0.25,1.726,2.7260000000000004,2.0,Scanner,R,1.0,2019_Sep_05_1057,SST,3.0.7,60.064333466018795,,
go,sst_images/Right_Arrow.bmp,None,2,929.0,None,0.0,112.0,112.0,112.0,,2,1.0,0.5050791659996321,go,0.25,0.929,1.929,2.0,Scanner,R,1.0,2019_Sep_05_1057,SST,3.0.7,60.064333466018795,,
go,sst_images/Left_Arrow.bmp,None,1,1298.0,None,0.0,113.0,113.0,113.0,,1,1.0,0.5377977709995321,go,0.25,1.298,2.298,2.0,Scanner,R,1.0,2019_Sep_05_1057,SST,3.0.7,60.064333466018795,,
go,sst_images/Right_Arrow.bmp,None,2,1043.0,None,0.0,114.0,114.0,114.0,,2,1.0,0.5870229109987122,go,0.25,1.043,2.043,2.0,Scanner,R,1.0,2019_Sep_05_1057,SST,3.0.7,60.064333466018795,,
go,sst_images/Left_Arrow.bmp,None,1,790.0,None,0.0,115.0,115.0,115.0,,1,1.0,0.4877558790012699,go,0.25,0.79,1.79,2.0,Scanner,R,1.0,2019_Sep_05_1057,SST,3.0.7,60.064333466018795,,
go,sst_images/Right_Arrow.bmp,None,2,724.0,None,0.0,116.0,116.0,116.0,,2,1.0,0.6209938439988036,go,0.25,0.7240000000000001,1.724,2.0,Scanner,R,1.0,2019_Sep_05_1057,SST,3.0.7,60.064333466018795,,
stop,sst_images/Right_Arrow.bmp,sst_images/Stop_Arrow.bmp,none,953.0,None,0.0,117.0,117.0,117.0,,None,1.0,,stop,0.3,0.953,1.953,2.0,Scanner,R,1.0,2019_Sep_05_1057,SST,3.0.7,60.064333466018795,,
go,sst_images/Left_Arrow.bmp,None,1,708.0,None,0.0,118.0,118.0,118.0,,None,0.0,,go,0.3,0.708,1.7080000000000002,2.0,Scanner,R,1.0,2019_Sep_05_1057,SST,3.0.7,60.064333466018795,,
go,sst_images/Right_Arrow.bmp,None,2,986.0,None,0.0,119.0,119.0,119.0,,None,0.0,,go,0.3,0.986,1.986,2.0,Scanner,R,1.0,2019_Sep_05_1057,SST,3.0.7,60.064333466018795,,
go,sst_images/Left_Arrow.bmp,None,1,887.0,None,0.0,120.0,120.0,120.0,,None,0.0,,go,0.3,0.887,1.8869999999999998,2.0,Scanner,R,1.0,2019_Sep_05_1057,SST,3.0.7,60.064333466018795,,
go,sst_images/Right_Arrow.bmp,None,2,978.0,None,0.0,121.0,121.0,121.0,,None,0.0,,go,0.3,0.978,1.9780000000000002,2.0,Scanner,R,1.0,2019_Sep_05_1057,SST,3.0.7,60.064333466018795,,
go,sst_images/Right_Arrow.bmp,None,2,729.0,None,0.0,122.0,122.0,122.0,,None,0.0,,go,0.3,0.7290000000000001,1.729,2.0,Scanner,R,1.0,2019_Sep_05_1057,SST,3.0.7,60.064333466018795,,
go,sst_images/Left_Arrow.bmp,None,1,735.0,None,0.0,123.0,123.0,123.0,,None,0.0,,go,0.3,0.735,1.735,2.0,Scanner,R,1.0,2019_Sep_05_1057,SST,3.0.7,60.064333466018795,,
stop,sst_images/Left_Arrow.bmp,sst_images/Stop_Arrow.bmp,none,838.0,None,0.0,124.0,124.0,124.0,,None,1.0,,stop,0.35,0.838,1.838,2.0,Scanner,R,1.0,2019_Sep_05_1057,SST,3.0.7,60.064333466018795,,
go,sst_images/Left_Arrow.bmp,None,1,832.0,None,0.0,125.0,125.0,125.0,,1,1.0,0.4102572849988064,go,0.35,0.8320000000000001,1.832,2.0,Scanner,R,1.0,2019_Sep_05_1057,SST,3.0.7,60.064333466018795,,
go,sst_images/Left_Arrow.bmp,None,1,714.0,None,0.0,126.0,126.0,126.0,,1,1.0,0.34266448299968033,go,0.35,0.7140000000000001,1.714,2.0,Scanner,R,1.0,2019_Sep_05_1057,SST,3.0.7,60.064333466018795,,
go,sst_images/Right_Arrow.bmp,None,2,730.0,None,0.0,127.0,127.0,127.0,,2,1.0,0.4017091870009608,go,0.35,0.73,1.73,2.0,Scanner,R,1.0,2019_Sep_05_1057,SST,3.0.7,60.064333466018795,,
go,sst_images/Left_Arrow.bmp,None,1,1027.0,None,0.0,128.0,128.0,128.0,,1,1.0,0.4256512829997519,go,0.35,1.0270000000000001,2.0269999999999997,2.0,Scanner,R,1.0,2019_Sep_05_1057,SST,3.0.7,60.064333466018795,,
stop,sst_images/Left_Arrow.bmp,sst_images/Stop_Arrow.bmp,none,796.0,None,0.0,129.0,129.0,129.0,,1,0.0,0.3324224919997505,stop,0.3,0.7959999999999999,2.113577508000249,2.0,Scanner,R,1.0,2019_Sep_05_1057,SST,3.0.7,60.064333466018795,,
go,sst_images/Left_Arrow.bmp,None,1,764.0,None,0.0,130.0,130.0,130.0,,1,1.0,0.3222869279998122,go,0.3,0.764,1.764,2.0,Scanner,R,1.0,2019_Sep_05_1057,SST,3.0.7,60.064333466018795,,
go,sst_images/Left_Arrow.bmp,None,1,742.0,None,0.0,131.0,131.0,131.0,,1,1.0,0.3873697700000776,go,0.3,0.742,1.742,2.0,Scanner,R,1.0,2019_Sep_05_1057,SST,3.0.7,60.064333466018795,,
stop,sst_images/Right_Arrow.bmp,sst_images/Stop_Arrow.bmp,none,705.0,None,0.0,132.0,132.0,132.0,,2,0.0,0.4213655709991144,stop,0.25,0.705,1.8836344290008855,2.0,Scanner,R,1.0,2019_Sep_05_1057,SST,3.0.7,60.064333466018795,,
go,sst_images/Right_Arrow.bmp,None,2,722.0,None,0.0,133.0,133.0,133.0,,2,1.0,0.6575657800003682,go,0.25,0.722,1.722,2.0,Scanner,R,1.0,2019_Sep_05_1057,SST,3.0.7,60.064333466018795,,
go,sst_images/Left_Arrow.bmp,None,1,956.0,None,0.0,134.0,134.0,134.0,,1,1.0,0.3764495199993689,go,0.25,0.956,1.956,2.0,Scanner,R,1.0,2019_Sep_05_1057,SST,3.0.7,60.064333466018795,,
go,sst_images/Left_Arrow.bmp,None,1,884.0,None,0.0,135.0,135.0,135.0,,1,1.0,0.32359079600064433,go,0.25,0.884,1.8840000000000001,2.0,Scanner,R,1.0,2019_Sep_05_1057,SST,3.0.7,60.064333466018795,,
stop,sst_images/Left_Arrow.bmp,sst_images/Stop_Arrow.bmp,none,722.0,None,0.0,136.0,136.0,136.0,,1,0.0,0.293419558000096,stop,0.2,0.722,1.978580441999904,2.0,Scanner,R,1.0,2019_Sep_05_1057,SST,3.0.7,60.064333466018795,,
go,sst_images/Right_Arrow.bmp,None,2,816.0,None,0.0,137.0,137.0,137.0,,2,1.0,0.37750648600012937,go,0.2,0.816,1.816,2.0,Scanner,R,1.0,2019_Sep_05_1057,SST,3.0.7,60.064333466018795,,
go,sst_images/Right_Arrow.bmp,None,2,846.0,None,0.0,138.0,138.0,138.0,,2,1.0,0.3762303619987506,go,0.2,0.846,1.8459999999999999,2.0,Scanner,R,1.0,2019_Sep_05_1057,SST,3.0.7,60.064333466018795,,
go,sst_images/Left_Arrow.bmp,None,1,1091.0,None,0.0,139.0,139.0,139.0,,1,1.0,0.4575823560007848,go,0.2,1.091,2.0909999999999997,2.0,Scanner,R,1.0,2019_Sep_05_1057,SST,3.0.7,60.064333466018795,,
go,sst_images/Right_Arrow.bmp,None,2,1235.0,None,0.0,140.0,140.0,140.0,,2,1.0,0.4521842300000571,go,0.2,1.235,2.2350000000000003,2.0,Scanner,R,1.0,2019_Sep_05_1057,SST,3.0.7,60.064333466018795,,
go,sst_images/Left_Arrow.bmp,None,1,834.0,None,0.0,141.0,141.0,141.0,,1,1.0,0.5421593250011938,go,0.2,0.8340000000000001,1.834,2.0,Scanner,R,1.0,2019_Sep_05_1057,SST,3.0.7,60.064333466018795,,
stop,sst_images/Right_Arrow.bmp,sst_images/Stop_Arrow.bmp,none,850.0,None,0.0,142.0,142.0,142.0,,2,0.0,0.4598866460000863,stop,0.15000000000000002,0.85,1.8901133539999135,2.0,Scanner,R,1.0,2019_Sep_05_1057,SST,3.0.7,60.064333466018795,,
go,sst_images/Left_Arrow.bmp,None,1,756.0,None,0.0,143.0,143.0,143.0,,1,1.0,0.4905584680000175,go,0.15000000000000002,0.7559999999999999,1.756,2.0,Scanner,R,1.0,2019_Sep_05_1057,SST,3.0.7,60.064333466018795,,
go,sst_images/Right_Arrow.bmp,None,2,846.0,None,0.0,144.0,144.0,144.0,,2,1.0,0.39168100300048536,go,0.15000000000000002,0.846,1.8459999999999999,2.0,Scanner,R,1.0,2019_Sep_05_1057,SST,3.0.7,60.064333466018795,,
go,sst_images/Left_Arrow.bmp,None,1,836.0,None,0.0,145.0,145.0,145.0,,1,1.0,0.4927547520001099,go,0.15000000000000002,0.836,1.836,2.0,Scanner,R,1.0,2019_Sep_05_1057,SST,3.0.7,60.064333466018795,,
go,sst_images/Right_Arrow.bmp,None,2,1172.0,None,0.0,146.0,146.0,146.0,,2,1.0,0.42523392899965984,go,0.15000000000000002,1.172,2.172,2.0,Scanner,R,1.0,2019_Sep_05_1057,SST,3.0.7,60.064333466018795,,
stop,sst_images/Right_Arrow.bmp,sst_images/Stop_Arrow.bmp,none,910.0,None,0.0,147.0,147.0,147.0,,2,0.0,0.40281491600035213,stop,0.10000000000000002,0.91,1.957185083999648,2.0,Scanner,R,1.0,2019_Sep_05_1057,SST,3.0.7,60.064333466018795,,
go,sst_images/Left_Arrow.bmp,None,1,802.0,None,0.0,148.0,148.0,148.0,,1,1.0,0.3426184780000767,go,0.10000000000000002,0.802,1.8019999999999998,2.0,Scanner,R,1.0,2019_Sep_05_1057,SST,3.0.7,60.064333466018795,,
go,sst_images/Right_Arrow.bmp,None,2,729.0,None,0.0,149.0,149.0,149.0,,2,1.0,0.5244034409988672,go,0.10000000000000002,0.7290000000000001,1.729,2.0,Scanner,R,1.0,2019_Sep_05_1057,SST,3.0.7,60.064333466018795,,
go,sst_images/Right_Arrow.bmp,None,2,838.0,None,0.0,150.0,150.0,150.0,,2,1.0,0.7574968079989048,go,0.10000000000000002,0.838,1.838,2.0,Scanner,R,1.0,2019_Sep_05_1057,SST,3.0.7,60.064333466018795,,
stop,sst_images/Left_Arrow.bmp,sst_images/Stop_Arrow.bmp,none,737.0,None,0.0,151.0,151.0,151.0,,None,1.0,,stop,0.15000000000000002,0.737,1.7369999999999999,2.0,Scanner,R,1.0,2019_Sep_05_1057,SST,3.0.7,60.064333466018795,,
go,sst_images/Left_Arrow.bmp,None,1,902.0,None,0.0,152.0,152.0,152.0,,1,1.0,0.4587007349982741,go,0.15000000000000002,0.902,1.902,2.0,Scanner,R,1.0,2019_Sep_05_1057,SST,3.0.7,60.064333466018795,,
go,sst_images/Right_Arrow.bmp,None,2,812.0,None,0.0,153.0,153.0,153.0,,2,1.0,0.3715099940000073,go,0.15000000000000002,0.812,1.8119999999999998,2.0,Scanner,R,1.0,2019_Sep_05_1057,SST,3.0.7,60.064333466018795,,
stop,sst_images/Left_Arrow.bmp,sst_images/Stop_Arrow.bmp,none,1014.0,None,0.0,154.0,154.0,154.0,,1,0.0,0.38780358700023504,stop,0.10000000000000002,1.014,2.076196412999765,2.0,Scanner,R,1.0,2019_Sep_05_1057,SST,3.0.7,60.064333466018795,,
go,sst_images/Left_Arrow.bmp,None,1,736.0,None,0.0,155.0,155.0,155.0,,1,1.0,0.3590247120009735,go,0.10000000000000002,0.736,1.736,2.0,Scanner,R,1.0,2019_Sep_05_1057,SST,3.0.7,60.064333466018795,,
go,sst_images/Right_Arrow.bmp,None,2,1391.0,None,0.0,156.0,156.0,156.0,,2,1.0,0.6546278080004413,go,0.10000000000000002,1.391,2.391,2.0,Scanner,R,1.0,2019_Sep_05_1057,SST,3.0.7,60.064333466018795,,
go,sst_images/Left_Arrow.bmp,None,1,816.0,None,0.0,157.0,157.0,157.0,,1,1.0,0.4547700840012112,go,0.10000000000000002,0.816,1.816,2.0,Scanner,R,1.0,2019_Sep_05_1057,SST,3.0.7,60.064333466018795,,
go,sst_images/Right_Arrow.bmp,None,2,1047.0,None,0.0,158.0,158.0,158.0,,2,1.0,0.37152276300003,go,0.10000000000000002,1.047,2.047,2.0,Scanner,R,1.0,2019_Sep_05_1057,SST,3.0.7,60.064333466018795,,
