trial_type,arrow_1,arrow_2,corrAns,jitter,run_end_fixation,runs.thisRepN,runs.thisTrialN,runs.thisN,runs.thisIndex,trials.thisRepN,trials.thisTrialN,trials.thisN,trials.thisIndex,key_response.keys,key_response.corr,key_response.rt,trial_t.routineEndVal,ss_delay,iti_duration,SOA,participant,prac_or_scan,handedness,date,expName,psychopyVersion,frameRate,
go,sst_images/Left_Arrow.bmp,None,1,720,None,0,0,0,0,0,0,0,0,1,1,0.8535467179999614,go,0.05,0.72,1.72,0001,Scanner,R,2019_Aug_15_1410,stopSignal,3.0.7,24.010897662860813,
go,sst_images/Right_Arrow.bmp,None,2,815,None,0,0,0,0,0,1,1,1,2,1,0.5885172070002227,go,0.05,0.815,1.815,0001,Scanner,R,2019_Aug_15_1410,stopSignal,3.0.7,24.010897662860813,
go,sst_images/Right_Arrow.bmp,None,2,769,None,0,0,0,0,0,2,2,2,2,1,0.6664844200004154,go,0.05,0.769,1.7690000000000001,0001,Scanner,R,2019_Aug_15_1410,stopSignal,3.0.7,24.010897662860813,
go,sst_images/Left_Arrow.bmp,None,1,816,None,0,0,0,0,0,3,3,3,1,1,0.5816155499996967,go,0.05,0.816,1.8159999999999998,0001,Scanner,R,2019_Aug_15_1410,stopSignal,3.0.7,24.010897662860813,
stop,sst_images/Right_Arrow.bmp,sst_images/Stop_Arrow.bmp,none,721,None,0,0,0,0,0,4,4,4,None,1,,stop,0.1,0.721,1.721,0001,Scanner,R,2019_Aug_15_1410,stopSignal,3.0.7,24.010897662860813,
go,sst_images/Left_Arrow.bmp,None,1,888,None,0,0,0,0,0,5,5,5,2,0,0.4225434749996566,go,0.1,0.888,1.888,0001,Scanner,R,2019_Aug_15_1410,stopSignal,3.0.7,24.010897662860813,
go,sst_images/Right_Arrow.bmp,None,2,900,None,0,0,0,0,0,6,6,6,2,1,0.46423359100026573,go,0.1,0.9,1.9,0001,Scanner,R,2019_Aug_15_1410,stopSignal,3.0.7,24.010897662860813,
go,sst_images/Left_Arrow.bmp,None,1,1264,None,0,0,0,0,0,7,7,7,1,1,0.5895899389997794,go,0.1,1.264,2.2640000000000002,0001,Scanner,R,2019_Aug_15_1410,stopSignal,3.0.7,24.010897662860813,
go,sst_images/Right_Arrow.bmp,None,2,744,None,0,0,0,0,0,8,8,8,2,1,0.464584236000519,go,0.1,0.744,1.744,0001,Scanner,R,2019_Aug_15_1410,stopSignal,3.0.7,24.010897662860813,
go,sst_images/Right_Arrow.bmp,None,2,794,None,0,0,0,0,0,9,9,9,2,1,0.5462366279998605,go,0.1,0.794,1.794,0001,Scanner,R,2019_Aug_15_1410,stopSignal,3.0.7,24.010897662860813,
go,sst_images/Left_Arrow.bmp,None,1,901,None,0,0,0,0,0,10,10,10,1,1,0.46436164199985797,go,0.1,0.901,1.901,0001,Scanner,R,2019_Aug_15_1410,stopSignal,3.0.7,24.010897662860813,
go,sst_images/Right_Arrow.bmp,None,2,882,None,0,0,0,0,0,11,11,11,2,1,0.42127765500026726,go,0.1,0.882,1.8820000000000001,0001,Scanner,R,2019_Aug_15_1410,stopSignal,3.0.7,24.010897662860813,
go,sst_images/Left_Arrow.bmp,None,1,732,None,0,0,0,0,0,12,12,12,1,1,0.5875911930006623,go,0.1,0.732,1.732,0001,Scanner,R,2019_Aug_15_1410,stopSignal,3.0.7,24.010897662860813,
go,sst_images/Left_Arrow.bmp,None,1,1173,None,0,0,0,0,0,13,13,13,1,1,0.6723547699994015,go,0.1,1.173,2.173,0001,Scanner,R,2019_Aug_15_1410,stopSignal,3.0.7,24.010897662860813,
stop,sst_images/Left_Arrow.bmp,sst_images/Stop_Arrow.bmp,none,1189,None,0,0,0,0,0,14,14,14,None,1,,stop,0.15000000000000002,1.189,2.189,0001,Scanner,R,2019_Aug_15_1410,stopSignal,3.0.7,24.010897662860813,
go,sst_images/Left_Arrow.bmp,None,1,755,None,0,0,0,0,0,15,15,15,2,0,0.4641983159999654,go,0.15000000000000002,0.755,1.755,0001,Scanner,R,2019_Aug_15_1410,stopSignal,3.0.7,24.010897662860813,
go,sst_images/Right_Arrow.bmp,None,2,806,None,0,0,0,0,0,16,16,16,2,1,0.546961774999545,go,0.15000000000000002,0.806,1.806,0001,Scanner,R,2019_Aug_15_1410,stopSignal,3.0.7,24.010897662860813,
stop,sst_images/Left_Arrow.bmp,sst_images/Stop_Arrow.bmp,none,924,None,0,0,0,0,0,17,17,17,None,1,,stop,0.2,0.924,1.9240000000000002,0001,Scanner,R,2019_Aug_15_1410,stopSignal,3.0.7,24.010897662860813,
go,sst_images/Left_Arrow.bmp,None,1,1139,None,0,0,0,0,0,18,18,18,1,1,0.5896752399994512,go,0.2,1.139,2.1390000000000002,0001,Scanner,R,2019_Aug_15_1410,stopSignal,3.0.7,24.010897662860813,
go,sst_images/Left_Arrow.bmp,None,1,725,None,0,0,0,0,0,19,19,19,1,1,0.5020593219996954,go,0.2,0.725,1.725,0001,Scanner,R,2019_Aug_15_1410,stopSignal,3.0.7,24.010897662860813,
go,sst_images/Right_Arrow.bmp,None,2,974,None,0,0,0,0,0,20,20,20,2,1,0.6700424310001836,go,0.2,0.974,1.974,0001,Scanner,R,2019_Aug_15_1410,stopSignal,3.0.7,24.010897662860813,
stop,sst_images/Right_Arrow.bmp,sst_images/Stop_Arrow.bmp,none,729,None,0,0,0,0,0,21,21,21,None,1,,stop,0.25,0.729,1.7289999999999999,0001,Scanner,R,2019_Aug_15_1410,stopSignal,3.0.7,24.010897662860813,
go,sst_images/Left_Arrow.bmp,None,1,744,None,0,0,0,0,0,22,22,22,1,1,0.5049205830000574,go,0.25,0.744,1.744,0001,Scanner,R,2019_Aug_15_1410,stopSignal,3.0.7,24.010897662860813,
go,sst_images/Right_Arrow.bmp,None,2,1598,None,0,0,0,0,0,23,23,23,2,1,0.4979355309997118,go,0.25,1.598,2.598,0001,Scanner,R,2019_Aug_15_1410,stopSignal,3.0.7,24.010897662860813,
go,sst_images/Left_Arrow.bmp,None,1,992,None,0,0,0,0,0,24,24,24,1,1,0.5452493570001025,go,0.25,0.992,1.992,0001,Scanner,R,2019_Aug_15_1410,stopSignal,3.0.7,24.010897662860813,
go,sst_images/Right_Arrow.bmp,None,2,1022,None,0,0,0,0,0,25,25,25,2,1,0.4988318559999243,go,0.25,1.022,2.0220000000000002,0001,Scanner,R,2019_Aug_15_1410,stopSignal,3.0.7,24.010897662860813,
stop,sst_images/Right_Arrow.bmp,sst_images/Stop_Arrow.bmp,none,929,None,0,0,0,0,0,26,26,26,2,0,0.535055100000136,stop,0.2,0.929,1.943944899999864,0001,Scanner,R,2019_Aug_15_1410,stopSignal,3.0.7,24.010897662860813,
go,sst_images/Right_Arrow.bmp,None,2,1590,None,0,0,0,0,0,27,27,27,2,1,0.6279957329998069,go,0.2,1.59,2.59,0001,Scanner,R,2019_Aug_15_1410,stopSignal,3.0.7,24.010897662860813,
go,sst_images/Left_Arrow.bmp,None,1,1317,None,0,0,0,0,0,28,28,28,1,1,0.5877963620005175,go,0.2,1.317,2.317,0001,Scanner,R,2019_Aug_15_1410,stopSignal,3.0.7,24.010897662860813,
go,sst_images/Right_Arrow.bmp,None,2,832,None,0,0,0,0,0,29,29,29,2,1,0.5007652349995624,go,0.2,0.832,1.8319999999999999,0001,Scanner,R,2019_Aug_15_1410,stopSignal,3.0.7,24.010897662860813,
go,sst_images/Right_Arrow.bmp,None,2,956,None,0,0,0,0,0,30,30,30,2,1,0.5864667030000419,go,0.2,0.956,1.956,0001,Scanner,R,2019_Aug_15_1410,stopSignal,3.0.7,24.010897662860813,
go,sst_images/Left_Arrow.bmp,None,1,761,None,0,0,0,0,0,31,31,31,1,1,0.6289295740007219,go,0.2,0.761,1.7610000000000001,0001,Scanner,R,2019_Aug_15_1410,stopSignal,3.0.7,24.010897662860813,
go,sst_images/Right_Arrow.bmp,None,2,709,None,0,0,0,0,0,32,32,32,2,1,0.4572865969994382,go,0.2,0.709,1.709,0001,Scanner,R,2019_Aug_15_1410,stopSignal,3.0.7,24.010897662860813,
stop,sst_images/Left_Arrow.bmp,sst_images/Stop_Arrow.bmp,none,721,None,0,0,0,0,0,33,33,33,None,1,,stop,0.25,0.721,1.7209999999999999,0001,Scanner,R,2019_Aug_15_1410,stopSignal,3.0.7,24.010897662860813,
go,sst_images/Left_Arrow.bmp,None,1,785,None,0,0,0,0,0,34,34,34,1,1,0.5874543619993347,go,0.25,0.785,1.7850000000000001,0001,Scanner,R,2019_Aug_15_1410,stopSignal,3.0.7,24.010897662860813,
go,sst_images/Left_Arrow.bmp,None,1,1022,None,0,0,0,0,0,35,35,35,1,1,0.6711858810003832,go,0.25,1.022,2.0220000000000002,0001,Scanner,R,2019_Aug_15_1410,stopSignal,3.0.7,24.010897662860813,
go,sst_images/Right_Arrow.bmp,None,2,2000,None,0,0,0,0,0,36,36,36,2,1,0.46003215099972294,go,0.25,2.0,3.0,0001,Scanner,R,2019_Aug_15_1410,stopSignal,3.0.7,24.010897662860813,
go,sst_images/Right_Arrow.bmp,None,2,749,None,0,0,0,0,0,37,37,37,2,1,0.5038779490005254,go,0.25,0.749,1.749,0001,Scanner,R,2019_Aug_15_1410,stopSignal,3.0.7,24.010897662860813,
go,sst_images/Left_Arrow.bmp,None,1,826,None,0,0,0,0,0,38,38,38,1,1,0.5436495419999119,go,0.25,0.826,1.826,0001,Scanner,R,2019_Aug_15_1410,stopSignal,3.0.7,24.010897662860813,
go,sst_images/Left_Arrow.bmp,None,1,722,None,0,0,0,0,0,39,39,39,1,1,0.7936395639999319,go,0.25,0.722,1.722,0001,Scanner,R,2019_Aug_15_1410,stopSignal,3.0.7,24.010897662860813,
go,sst_images/Right_Arrow.bmp,None,2,749,None,0,0,0,0,0,40,40,40,2,1,0.5061557440003526,go,0.25,0.749,1.749,0001,Scanner,R,2019_Aug_15_1410,stopSignal,3.0.7,24.010897662860813,
go,sst_images/Left_Arrow.bmp,None,1,846,None,0,0,0,0,0,41,41,41,1,1,0.5040863920003176,go,0.25,0.846,1.846,0001,Scanner,R,2019_Aug_15_1410,stopSignal,3.0.7,24.010897662860813,
go,sst_images/Left_Arrow.bmp,None,1,792,None,0,0,0,0,0,42,42,42,1,1,0.5033811029998105,go,0.25,0.792,1.792,0001,Scanner,R,2019_Aug_15_1410,stopSignal,3.0.7,24.010897662860813,
stop,sst_images/Right_Arrow.bmp,sst_images/Stop_Arrow.bmp,none,775,None,0,0,0,0,0,43,43,43,2,0,0.4644879409997884,stop,0.2,0.775,1.8605120590002115,0001,Scanner,R,2019_Aug_15_1410,stopSignal,3.0.7,24.010897662860813,
go,sst_images/Right_Arrow.bmp,None,2,733,None,0,0,0,0,0,44,44,44,2,1,0.6285658580000018,go,0.2,0.733,1.733,0001,Scanner,R,2019_Aug_15_1410,stopSignal,3.0.7,24.010897662860813,
go,sst_images/Right_Arrow.bmp,None,2,723,None,0,0,0,0,0,45,45,45,2,1,0.6261719039994205,go,0.2,0.723,1.7229999999999999,0001,Scanner,R,2019_Aug_15_1410,stopSignal,3.0.7,24.010897662860813,
go,sst_images/Right_Arrow.bmp,None,2,916,None,0,0,0,0,0,46,46,46,2,1,0.5421538729997337,go,0.2,0.916,1.916,0001,Scanner,R,2019_Aug_15_1410,stopSignal,3.0.7,24.010897662860813,
stop,sst_images/Right_Arrow.bmp,sst_images/Stop_Arrow.bmp,none,851,None,0,0,0,0,0,47,47,47,None,1,,stop,0.25,0.851,1.851,0001,Scanner,R,2019_Aug_15_1410,stopSignal,3.0.7,24.010897662860813,
go,sst_images/Left_Arrow.bmp,None,1,744,None,0,0,0,0,0,48,48,48,1,1,0.5461829199994099,go,0.25,0.744,1.744,0001,Scanner,R,2019_Aug_15_1410,stopSignal,3.0.7,24.010897662860813,
go,sst_images/Left_Arrow.bmp,None,1,2000,None,0,0,0,0,0,49,49,49,1,1,0.6712584440001592,go,0.25,2.0,3.0,0001,Scanner,R,2019_Aug_15_1410,stopSignal,3.0.7,24.010897662860813,
go,sst_images/Left_Arrow.bmp,None,1,1200,None,0,0,0,0,0,50,50,50,1,1,0.6302570220004782,go,0.25,1.2,2.2,0001,Scanner,R,2019_Aug_15_1410,stopSignal,3.0.7,24.010897662860813,
go,sst_images/Right_Arrow.bmp,None,2,809,None,0,0,0,0,0,51,51,51,2,1,0.5478775179999502,go,0.25,0.809,1.8090000000000002,0001,Scanner,R,2019_Aug_15_1410,stopSignal,3.0.7,24.010897662860813,
go,sst_images/Right_Arrow.bmp,None,2,790,None,0,0,0,0,0,52,52,52,2,1,0.5471677200002887,go,0.25,0.79,1.79,0001,Scanner,R,2019_Aug_15_1410,stopSignal,3.0.7,24.010897662860813,
stop,sst_images/Left_Arrow.bmp,sst_images/Stop_Arrow.bmp,none,816,None,0,0,0,0,0,53,53,53,1,0,0.48502700599965465,stop,0.2,0.816,1.8809729940003452,0001,Scanner,R,2019_Aug_15_1410,stopSignal,3.0.7,24.010897662860813,
go,sst_images/Left_Arrow.bmp,None,1,816,None,0,0,0,0,0,54,54,54,1,1,0.588392974999806,go,0.2,0.816,1.8159999999999998,0001,Scanner,R,2019_Aug_15_1410,stopSignal,3.0.7,24.010897662860813,
go,sst_images/Left_Arrow.bmp,None,1,721,None,0,0,0,0,0,55,55,55,1,1,0.5902665789999446,go,0.2,0.721,1.721,0001,Scanner,R,2019_Aug_15_1410,stopSignal,3.0.7,24.010897662860813,
go,sst_images/Left_Arrow.bmp,None,1,1164,None,0,0,0,0,0,56,56,56,1,1,0.5848286549999102,go,0.2,1.164,2.1639999999999997,0001,Scanner,R,2019_Aug_15_1410,stopSignal,3.0.7,24.010897662860813,
go,sst_images/Right_Arrow.bmp,None,2,839,None,0,0,0,0,0,57,57,57,2,1,0.5887730869999359,go,0.2,0.839,1.839,0001,Scanner,R,2019_Aug_15_1410,stopSignal,3.0.7,24.010897662860813,
go,sst_images/Left_Arrow.bmp,None,1,761,None,0,0,0,0,0,58,58,58,1,1,0.5416078830003244,go,0.2,0.761,1.7610000000000001,0001,Scanner,R,2019_Aug_15_1410,stopSignal,3.0.7,24.010897662860813,
stop,sst_images/Right_Arrow.bmp,sst_images/Stop_Arrow.bmp,none,886,None,0,0,0,0,0,59,59,59,2,0,0.4592157870001756,stop,0.15000000000000002,0.886,1.9267842129998245,0001,Scanner,R,2019_Aug_15_1410,stopSignal,3.0.7,24.010897662860813,
go,sst_images/Left_Arrow.bmp,None,1,805,None,0,0,0,0,0,60,60,60,1,1,0.5081602709997242,go,0.15000000000000002,0.805,1.8050000000000002,0001,Scanner,R,2019_Aug_15_1410,stopSignal,3.0.7,24.010897662860813,
stop,sst_images/Left_Arrow.bmp,sst_images/Stop_Arrow.bmp,none,976,None,0,0,0,0,0,61,61,61,None,1,,stop,0.2,0.976,1.9759999999999998,0001,Scanner,R,2019_Aug_15_1410,stopSignal,3.0.7,24.010897662860813,
go,sst_images/Right_Arrow.bmp,None,2,707,None,0,0,0,0,0,62,62,62,2,1,0.5033477930001027,go,0.2,0.707,1.7069999999999999,0001,Scanner,R,2019_Aug_15_1410,stopSignal,3.0.7,24.010897662860813,
go,sst_images/Right_Arrow.bmp,None,2,927,None,0,0,0,0,0,63,63,63,2,1,0.5455540020002445,go,0.2,0.927,1.927,0001,Scanner,R,2019_Aug_15_1410,stopSignal,3.0.7,24.010897662860813,
go,sst_images/Left_Arrow.bmp,None,1,908,None,0,0,0,0,0,64,64,64,1,1,0.5831883260007089,go,0.2,0.908,1.908,0001,Scanner,R,2019_Aug_15_1410,stopSignal,3.0.7,24.010897662860813,
stop,sst_images/Right_Arrow.bmp,sst_images/Stop_Arrow.bmp,none,852,None,0,0,0,0,0,65,65,65,2,0,0.3987164339996525,stop,0.15000000000000002,0.852,1.9532835660003474,0001,Scanner,R,2019_Aug_15_1410,stopSignal,3.0.7,24.010897662860813,
go,sst_images/Right_Arrow.bmp,None,2,1233,None,0,0,0,0,0,66,66,66,2,1,0.6296247529999164,go,0.15000000000000002,1.233,2.233,0001,Scanner,R,2019_Aug_15_1410,stopSignal,3.0.7,24.010897662860813,
go,sst_images/Left_Arrow.bmp,None,1,1097,None,0,0,0,0,0,67,67,67,1,1,0.4648563410000861,go,0.15000000000000002,1.097,2.097,0001,Scanner,R,2019_Aug_15_1410,stopSignal,3.0.7,24.010897662860813,
go,sst_images/Right_Arrow.bmp,None,2,772,None,0,0,0,0,0,68,68,68,2,1,0.5457688840006085,go,0.15000000000000002,0.772,1.772,0001,Scanner,R,2019_Aug_15_1410,stopSignal,3.0.7,24.010897662860813,
go,sst_images/Right_Arrow.bmp,None,2,841,None,0,0,0,0,0,69,69,69,2,1,0.5840206650000255,go,0.15000000000000002,0.841,1.841,0001,Scanner,R,2019_Aug_15_1410,stopSignal,3.0.7,24.010897662860813,
go,sst_images/Left_Arrow.bmp,None,1,803,None,0,0,0,0,0,70,70,70,1,1,0.5460256199994546,go,0.15000000000000002,0.803,1.803,0001,Scanner,R,2019_Aug_15_1410,stopSignal,3.0.7,24.010897662860813,
go,sst_images/Right_Arrow.bmp,None,2,791,None,0,0,0,0,0,71,71,71,2,1,0.45986186300069676,go,0.15000000000000002,0.791,1.791,0001,Scanner,R,2019_Aug_15_1410,stopSignal,3.0.7,24.010897662860813,
go,sst_images/Left_Arrow.bmp,None,1,790,None,0,0,0,0,0,72,72,72,1,1,0.5020617650006898,go,0.15000000000000002,0.79,1.79,0001,Scanner,R,2019_Aug_15_1410,stopSignal,3.0.7,24.010897662860813,
go,sst_images/Right_Arrow.bmp,None,2,1087,None,0,0,0,0,0,73,73,73,2,1,0.37924743599978683,go,0.15000000000000002,1.087,2.0869999999999997,0001,Scanner,R,2019_Aug_15_1410,stopSignal,3.0.7,24.010897662860813,
go,sst_images/Left_Arrow.bmp,None,1,817,None,0,0,0,0,0,74,74,74,1,1,0.5845920450001358,go,0.15000000000000002,0.817,1.817,0001,Scanner,R,2019_Aug_15_1410,stopSignal,3.0.7,24.010897662860813,
stop,sst_images/Right_Arrow.bmp,sst_images/Stop_Arrow.bmp,none,747,None,0,0,0,0,0,75,75,75,2,0,0.4186951140000019,stop,0.10000000000000002,0.747,1.778304885999998,0001,Scanner,R,2019_Aug_15_1410,stopSignal,3.0.7,24.010897662860813,
go,sst_images/Right_Arrow.bmp,None,2,808,None,0,0,0,0,0,76,76,76,2,1,0.5411243850003302,go,0.10000000000000002,0.808,1.808,0001,Scanner,R,2019_Aug_15_1410,stopSignal,3.0.7,24.010897662860813,
go,sst_images/Right_Arrow.bmp,None,2,1279,None,0,0,0,0,0,77,77,77,2,1,0.5467559990001973,go,0.10000000000000002,1.279,2.279,0001,Scanner,R,2019_Aug_15_1410,stopSignal,3.0.7,24.010897662860813,
go,sst_images/Left_Arrow.bmp,None,1,759,None,0,0,0,0,0,78,78,78,1,1,0.5432431780000115,go,0.10000000000000002,0.759,1.759,0001,Scanner,R,2019_Aug_15_1410,stopSignal,3.0.7,24.010897662860813,
go,sst_images/Left_Arrow.bmp,None,1,776,None,0,0,0,0,0,79,79,79,1,1,0.6724022419994071,go,0.10000000000000002,0.776,1.776,0001,Scanner,R,2019_Aug_15_1410,stopSignal,3.0.7,24.010897662860813,
go,sst_images/Right_Arrow.bmp,None,2,746,None,0,0,0,0,0,80,80,80,2,1,0.46436988299956283,go,0.10000000000000002,0.746,1.746,0001,Scanner,R,2019_Aug_15_1410,stopSignal,3.0.7,24.010897662860813,
stop,sst_images/Left_Arrow.bmp,sst_images/Stop_Arrow.bmp,none,760,None,0,0,0,0,0,81,81,81,None,1,,stop,0.15000000000000002,0.76,1.76,0001,Scanner,R,2019_Aug_15_1410,stopSignal,3.0.7,24.010897662860813,
go,sst_images/Right_Arrow.bmp,None,2,929,None,0,0,0,0,0,82,82,82,2,1,0.46076615899983153,go,0.15000000000000002,0.929,1.929,0001,Scanner,R,2019_Aug_15_1410,stopSignal,3.0.7,24.010897662860813,
go,sst_images/Right_Arrow.bmp,None,2,705,None,0,0,0,0,0,83,83,83,2,1,0.504377855999337,go,0.15000000000000002,0.705,1.705,0001,Scanner,R,2019_Aug_15_1410,stopSignal,3.0.7,24.010897662860813,
go,sst_images/Left_Arrow.bmp,None,1,1410,None,0,0,0,0,0,84,84,84,1,1,0.6704610630004026,go,0.15000000000000002,1.41,2.41,0001,Scanner,R,2019_Aug_15_1410,stopSignal,3.0.7,24.010897662860813,
go,sst_images/Left_Arrow.bmp,None,1,1410,None,0,0,0,0,0,85,85,85,2,0,0.5038487789997816,go,0.15000000000000002,1.41,2.41,0001,Scanner,R,2019_Aug_15_1410,stopSignal,3.0.7,24.010897662860813,
go,sst_images/Right_Arrow.bmp,None,2,766,None,0,0,0,0,0,86,86,86,2,1,0.4616543760002969,go,0.15000000000000002,0.766,1.766,0001,Scanner,R,2019_Aug_15_1410,stopSignal,3.0.7,24.010897662860813,
go,sst_images/Left_Arrow.bmp,None,1,866,None,0,0,0,0,0,87,87,87,1,1,0.545566554999823,go,0.15000000000000002,0.866,1.866,0001,Scanner,R,2019_Aug_15_1410,stopSignal,3.0.7,24.010897662860813,
go,sst_images/Right_Arrow.bmp,None,2,820,None,0,0,0,0,0,88,88,88,2,1,0.46343042999978934,go,0.15000000000000002,0.82,1.8199999999999998,0001,Scanner,R,2019_Aug_15_1410,stopSignal,3.0.7,24.010897662860813,
go,sst_images/Left_Arrow.bmp,None,1,894,None,0,0,0,0,0,89,89,89,1,1,0.4220868200000041,go,0.15000000000000002,0.894,1.8940000000000001,0001,Scanner,R,2019_Aug_15_1410,stopSignal,3.0.7,24.010897662860813,
stop,sst_images/Right_Arrow.bmp,sst_images/Stop_Arrow.bmp,none,764,None,0,0,0,0,0,90,90,90,2,0,0.4602747890003229,stop,0.10000000000000002,0.764,1.7537252109996773,0001,Scanner,R,2019_Aug_15_1410,stopSignal,3.0.7,24.010897662860813,
go,sst_images/Right_Arrow.bmp,None,2,1189,None,0,0,0,0,0,91,91,91,2,1,0.6286168100004943,go,0.10000000000000002,1.189,2.189,0001,Scanner,R,2019_Aug_15_1410,stopSignal,3.0.7,24.010897662860813,
go,sst_images/Left_Arrow.bmp,None,1,852,None,0,0,0,0,0,92,92,92,1,1,0.5034226310008307,go,0.10000000000000002,0.852,1.8519999999999999,0001,Scanner,R,2019_Aug_15_1410,stopSignal,3.0.7,24.010897662860813,
go,sst_images/Left_Arrow.bmp,None,1,1097,None,0,0,0,0,0,93,93,93,1,1,0.629628405999938,go,0.10000000000000002,1.097,2.097,0001,Scanner,R,2019_Aug_15_1410,stopSignal,3.0.7,24.010897662860813,
stop,sst_images/Right_Arrow.bmp,sst_images/Stop_Arrow.bmp,none,710,None,0,0,0,0,0,94,94,94,None,1,,stop,0.15000000000000002,0.71,1.7100000000000002,0001,Scanner,R,2019_Aug_15_1410,stopSignal,3.0.7,24.010897662860813,
go,sst_images/Left_Arrow.bmp,None,1,765,None,0,0,0,0,0,95,95,95,1,1,0.5452818920002755,go,0.15000000000000002,0.765,1.7650000000000001,0001,Scanner,R,2019_Aug_15_1410,stopSignal,3.0.7,24.010897662860813,
go,sst_images/Right_Arrow.bmp,None,2,836,None,0,0,0,0,0,96,96,96,2,1,0.4594018389998382,go,0.15000000000000002,0.836,1.8359999999999999,0001,Scanner,R,2019_Aug_15_1410,stopSignal,3.0.7,24.010897662860813,
go,sst_images/Left_Arrow.bmp,None,1,858,None,0,0,0,0,0,97,97,97,1,1,0.5015613349996784,go,0.15000000000000002,0.858,1.858,0001,Scanner,R,2019_Aug_15_1410,stopSignal,3.0.7,24.010897662860813,
go,sst_images/Right_Arrow.bmp,None,2,846,None,0,0,0,0,0,98,98,98,2,1,0.459555726999497,go,0.15000000000000002,0.846,1.846,0001,Scanner,R,2019_Aug_15_1410,stopSignal,3.0.7,24.010897662860813,
go,sst_images/Right_Arrow.bmp,None,2,937,None,0,0,0,0,0,99,99,99,2,1,0.5901429499999722,go,0.15000000000000002,0.937,1.937,0001,Scanner,R,2019_Aug_15_1410,stopSignal,3.0.7,24.010897662860813,
stop,sst_images/Left_Arrow.bmp,sst_images/Stop_Arrow.bmp,none,761,None,0,0,0,0,0,100,100,100,None,1,,stop,0.2,0.761,1.761,0001,Scanner,R,2019_Aug_15_1410,stopSignal,3.0.7,24.010897662860813,
go,sst_images/Left_Arrow.bmp,None,1,745,None,0,0,0,0,0,101,101,101,1,1,0.6295450480001819,go,0.2,0.745,1.745,0001,Scanner,R,2019_Aug_15_1410,stopSignal,3.0.7,24.010897662860813,
go,sst_images/Right_Arrow.bmp,None,2,1538,None,0,0,0,0,0,102,102,102,2,1,0.6308107049999307,go,0.2,1.538,2.5380000000000003,0001,Scanner,R,2019_Aug_15_1410,stopSignal,3.0.7,24.010897662860813,
go,sst_images/Right_Arrow.bmp,None,2,716,None,0,0,0,0,0,103,103,103,2,1,0.5043803809994643,go,0.2,0.716,1.716,0001,Scanner,R,2019_Aug_15_1410,stopSignal,3.0.7,24.010897662860813,
stop,sst_images/Left_Arrow.bmp,sst_images/Stop_Arrow.bmp,none,1093,None,0,0,0,0,0,104,104,104,1,0,0.5466353540005002,stop,0.15000000000000002,1.093,2.0463646459994997,0001,Scanner,R,2019_Aug_15_1410,stopSignal,3.0.7,24.010897662860813,
go,sst_images/Left_Arrow.bmp,None,1,717,None,0,0,0,0,0,105,105,105,1,1,0.5464600160003101,go,0.15000000000000002,0.717,1.717,0001,Scanner,R,2019_Aug_15_1410,stopSignal,3.0.7,24.010897662860813,
go,sst_images/Left_Arrow.bmp,None,1,1018,None,0,0,0,0,0,106,106,106,1,1,0.5887460980002288,go,0.15000000000000002,1.018,2.018,0001,Scanner,R,2019_Aug_15_1410,stopSignal,3.0.7,24.010897662860813,
go,sst_images/Right_Arrow.bmp,None,2,768,None,0,0,0,0,0,107,107,107,2,1,0.5460214610002367,go,0.15000000000000002,0.768,1.768,0001,Scanner,R,2019_Aug_15_1410,stopSignal,3.0.7,24.010897662860813,
stop,sst_images/Right_Arrow.bmp,sst_images/Stop_Arrow.bmp,none,717,None,0,0,0,0,0,108,108,108,2,0,0.4448822399999699,stop,0.10000000000000002,0.717,1.7221177600000301,0001,Scanner,R,2019_Aug_15_1410,stopSignal,3.0.7,24.010897662860813,
go,sst_images/Right_Arrow.bmp,None,2,1081,None,0,0,0,0,0,109,109,109,2,1,0.6711939630004053,go,0.10000000000000002,1.081,2.081,0001,Scanner,R,2019_Aug_15_1410,stopSignal,3.0.7,24.010897662860813,
go,sst_images/Left_Arrow.bmp,None,1,765,None,0,0,0,0,0,110,110,110,1,1,0.6260897600004682,go,0.10000000000000002,0.765,1.7650000000000001,0001,Scanner,R,2019_Aug_15_1410,stopSignal,3.0.7,24.010897662860813,
go,sst_images/Right_Arrow.bmp,None,2,858,None,0,0,0,0,0,111,111,111,2,1,0.46007283899962204,go,0.10000000000000002,0.858,1.858,0001,Scanner,R,2019_Aug_15_1410,stopSignal,3.0.7,24.010897662860813,
go,sst_images/Left_Arrow.bmp,None,1,1408,None,0,0,0,0,0,112,112,112,1,1,0.5889877339996019,go,0.10000000000000002,1.408,2.408,0001,Scanner,R,2019_Aug_15_1410,stopSignal,3.0.7,24.010897662860813,
go,sst_images/Right_Arrow.bmp,None,2,1262,None,0,0,0,0,0,113,113,113,2,1,0.4622388570005569,go,0.10000000000000002,1.262,2.262,0001,Scanner,R,2019_Aug_15_1410,stopSignal,3.0.7,24.010897662860813,
stop,sst_images/Left_Arrow.bmp,sst_images/Stop_Arrow.bmp,none,755,None,0,0,0,0,0,114,114,114,None,1,,stop,0.15000000000000002,0.755,1.7550000000000001,0001,Scanner,R,2019_Aug_15_1410,stopSignal,3.0.7,24.010897662860813,
go,sst_images/Left_Arrow.bmp,None,1,1408,None,0,0,0,0,0,115,115,115,1,1,0.6713633199997275,go,0.15000000000000002,1.408,2.408,0001,Scanner,R,2019_Aug_15_1410,stopSignal,3.0.7,24.010897662860813,
go,sst_images/Right_Arrow.bmp,None,2,703,None,0,0,0,0,0,116,116,116,2,1,0.4602607609995175,go,0.15000000000000002,0.703,1.7029999999999998,0001,Scanner,R,2019_Aug_15_1410,stopSignal,3.0.7,24.010897662860813,
go,sst_images/Left_Arrow.bmp,None,1,731,None,0,0,0,0,0,117,117,117,1,1,0.5059151299992664,go,0.15000000000000002,0.731,1.7309999999999999,0001,Scanner,R,2019_Aug_15_1410,stopSignal,3.0.7,24.010897662860813,
go,sst_images/Right_Arrow.bmp,None,2,2000,None,0,0,0,0,0,118,118,118,2,1,0.46485738800038234,go,0.15000000000000002,2.0,3.0,0001,Scanner,R,2019_Aug_15_1410,stopSignal,3.0.7,24.010897662860813,
go,sst_images/Left_Arrow.bmp,None,1,908,None,0,0,0,0,0,119,119,119,1,1,0.5045622099996763,go,0.15000000000000002,0.908,1.908,0001,Scanner,R,2019_Aug_15_1410,stopSignal,3.0.7,24.010897662860813,
go,sst_images/Right_Arrow.bmp,None,2,1866,None,0,0,0,0,0,120,120,120,2,1,0.4628282749999926,go,0.15000000000000002,1.866,2.866,0001,Scanner,R,2019_Aug_15_1410,stopSignal,3.0.7,24.010897662860813,
go,sst_images/Left_Arrow.bmp,None,1,1073,None,0,0,0,0,0,121,121,121,1,1,0.4629235009997501,go,0.15000000000000002,1.073,2.073,0001,Scanner,R,2019_Aug_15_1410,stopSignal,3.0.7,24.010897662860813,
go,sst_images/Right_Arrow.bmp,None,2,1290,None,0,0,0,0,0,122,122,122,2,1,0.4598791649996201,go,0.15000000000000002,1.29,2.29,0001,Scanner,R,2019_Aug_15_1410,stopSignal,3.0.7,24.010897662860813,
go,sst_images/Right_Arrow.bmp,None,2,708,None,0,0,0,0,0,123,123,123,1,0,0.504198264000479,go,0.15000000000000002,0.708,1.708,0001,Scanner,R,2019_Aug_15_1410,stopSignal,3.0.7,24.010897662860813,
go,sst_images/Left_Arrow.bmp,None,1,1713,None,0,0,0,0,0,124,124,124,1,1,0.5446229199997106,go,0.15000000000000002,1.713,2.713,0001,Scanner,R,2019_Aug_15_1410,stopSignal,3.0.7,24.010897662860813,
go,sst_images/Left_Arrow.bmp,None,1,744,None,0,0,0,0,0,125,125,125,1,1,0.7565094900000986,go,0.15000000000000002,0.744,1.744,0001,Scanner,R,2019_Aug_15_1410,stopSignal,3.0.7,24.010897662860813,
go,sst_images/Left_Arrow.bmp,None,1,760,None,0,0,0,0,0,126,126,126,1,1,0.6271398389999376,go,0.15000000000000002,0.76,1.76,0001,Scanner,R,2019_Aug_15_1410,stopSignal,3.0.7,24.010897662860813,
stop,sst_images/Left_Arrow.bmp,sst_images/Stop_Arrow.bmp,none,1081,None,0,0,0,0,0,127,127,127,None,1,,stop,0.2,1.081,2.0809999999999995,0001,Scanner,R,2019_Aug_15_1410,stopSignal,3.0.7,24.010897662860813,
go,sst_images/Right_Arrow.bmp,None,2,1285,None,0,0,0,0,0,128,128,128,2,1,0.5046314640003402,go,0.2,1.285,2.285,0001,Scanner,R,2019_Aug_15_1410,stopSignal,3.0.7,24.010897662860813,
go,sst_images/Left_Arrow.bmp,None,1,728,None,0,0,0,0,0,129,129,129,1,1,0.46487101599996095,go,0.2,0.728,1.728,0001,Scanner,R,2019_Aug_15_1410,stopSignal,3.0.7,24.010897662860813,
stop,sst_images/Right_Arrow.bmp,sst_images/Stop_Arrow.bmp,none,745,None,0,0,0,0,0,130,130,130,2,0,0.48073670899975696,stop,0.15000000000000002,0.745,1.7642632910002432,0001,Scanner,R,2019_Aug_15_1410,stopSignal,3.0.7,24.010897662860813,
go,sst_images/Left_Arrow.bmp,None,1,809,None,0,0,0,0,0,131,131,131,1,1,0.6711680120006349,go,0.15000000000000002,0.809,1.8090000000000002,0001,Scanner,R,2019_Aug_15_1410,stopSignal,3.0.7,24.010897662860813,
go,sst_images/Left_Arrow.bmp,None,1,1427,None,0,0,0,0,0,132,132,132,1,1,0.5440548710002986,go,0.15000000000000002,1.427,2.427,0001,Scanner,R,2019_Aug_15_1410,stopSignal,3.0.7,24.010897662860813,
go,sst_images/Right_Arrow.bmp,None,2,947,None,0,0,0,0,0,133,133,133,2,1,0.45997136599999067,go,0.15000000000000002,0.947,1.947,0001,Scanner,R,2019_Aug_15_1410,stopSignal,3.0.7,24.010897662860813,
go,sst_images/Left_Arrow.bmp,None,1,714,None,0,0,0,0,0,134,134,134,1,1,0.5466662290000386,go,0.15000000000000002,0.714,1.714,0001,Scanner,R,2019_Aug_15_1410,stopSignal,3.0.7,24.010897662860813,
stop,sst_images/Left_Arrow.bmp,sst_images/Stop_Arrow.bmp,none,992,None,0,0,0,0,0,135,135,135,None,1,,stop,0.2,0.992,1.9919999999999998,0001,Scanner,R,2019_Aug_15_1410,stopSignal,3.0.7,24.010897662860813,
go,sst_images/Left_Arrow.bmp,None,1,729,None,0,0,0,0,0,136,136,136,1,1,0.627542863000599,go,0.2,0.729,1.729,0001,Scanner,R,2019_Aug_15_1410,stopSignal,3.0.7,24.010897662860813,
go,sst_images/Right_Arrow.bmp,None,2,725,None,0,0,0,0,0,137,137,137,2,1,0.4625900390001334,go,0.2,0.725,1.725,0001,Scanner,R,2019_Aug_15_1410,stopSignal,3.0.7,24.010897662860813,
go,sst_images/Right_Arrow.bmp,None,2,725,None,0,0,0,0,0,138,138,138,2,1,0.5461733510001068,go,0.2,0.725,1.725,0001,Scanner,R,2019_Aug_15_1410,stopSignal,3.0.7,24.010897662860813,
stop,sst_images/Right_Arrow.bmp,sst_images/Stop_Arrow.bmp,none,790,None,0,0,0,0,0,139,139,139,None,1,,stop,0.25,0.79,1.79,0001,Scanner,R,2019_Aug_15_1410,stopSignal,3.0.7,24.010897662860813,
go,sst_images/Left_Arrow.bmp,None,1,761,None,0,0,0,0,0,140,140,140,1,1,0.5846312700005001,go,0.25,0.761,1.7610000000000001,0001,Scanner,R,2019_Aug_15_1410,stopSignal,3.0.7,24.010897662860813,
go,sst_images/Right_Arrow.bmp,None,2,1000,None,0,0,0,0,0,141,141,141,2,1,0.5466189669996311,go,0.25,1.0,2.0,0001,Scanner,R,2019_Aug_15_1410,stopSignal,3.0.7,24.010897662860813,
go,sst_images/Left_Arrow.bmp,None,1,764,None,0,0,0,0,0,142,142,142,1,1,0.46507269799985806,go,0.25,0.764,1.764,0001,Scanner,R,2019_Aug_15_1410,stopSignal,3.0.7,24.010897662860813,
go,sst_images/Left_Arrow.bmp,None,1,976,None,0,0,0,0,0,143,143,143,1,1,0.5448353039992071,go,0.25,0.976,1.976,0001,Scanner,R,2019_Aug_15_1410,stopSignal,3.0.7,24.010897662860813,
go,sst_images/Right_Arrow.bmp,None,2,1123,None,0,0,0,0,0,144,144,144,2,1,0.5039040390001901,go,0.25,1.123,2.123,0001,Scanner,R,2019_Aug_15_1410,stopSignal,3.0.7,24.010897662860813,
go,sst_images/Left_Arrow.bmp,None,1,721,None,0,0,0,0,0,145,145,145,1,1,0.4622760689999268,go,0.25,0.721,1.721,0001,Scanner,R,2019_Aug_15_1410,stopSignal,3.0.7,24.010897662860813,
go,sst_images/Right_Arrow.bmp,None,2,807,None,0,0,0,0,0,146,146,146,2,1,0.5046189860004233,go,0.25,0.807,1.807,0001,Scanner,R,2019_Aug_15_1410,stopSignal,3.0.7,24.010897662860813,
go,sst_images/Left_Arrow.bmp,None,1,929,None,0,0,0,0,0,147,147,147,1,1,0.5446114790001957,go,0.25,0.929,1.929,0001,Scanner,R,2019_Aug_15_1410,stopSignal,3.0.7,24.010897662860813,
go,sst_images/Right_Arrow.bmp,None,2,701,None,0,0,0,0,0,148,148,148,2,1,0.4611703420005142,go,0.25,0.701,1.701,0001,Scanner,R,2019_Aug_15_1410,stopSignal,3.0.7,24.010897662860813,
stop,sst_images/Right_Arrow.bmp,sst_images/Stop_Arrow.bmp,none,929,None,0,0,0,0,0,149,149,149,2,0,0.49156909300018015,stop,0.2,0.929,1.98743090699982,0001,Scanner,R,2019_Aug_15_1410,stopSignal,3.0.7,24.010897662860813,
go,sst_images/Right_Arrow.bmp,None,2,745,None,0,0,0,0,0,150,150,150,2,1,0.6291559520004739,go,0.2,0.745,1.745,0001,Scanner,R,2019_Aug_15_1410,stopSignal,3.0.7,24.010897662860813,
go,sst_images/Left_Arrow.bmp,None,1,984,None,0,0,0,0,0,151,151,151,1,1,0.5031560370007355,go,0.2,0.984,1.984,0001,Scanner,R,2019_Aug_15_1410,stopSignal,3.0.7,24.010897662860813,
go,sst_images/Right_Arrow.bmp,None,2,729,None,0,0,0,0,0,152,152,152,2,1,0.41784086500047124,go,0.2,0.729,1.729,0001,Scanner,R,2019_Aug_15_1410,stopSignal,3.0.7,24.010897662860813,
go,sst_images/Left_Arrow.bmp,None,1,831,None,0,0,0,0,0,153,153,153,1,1,0.46292552999966574,go,0.2,0.831,1.831,0001,Scanner,R,2019_Aug_15_1410,stopSignal,3.0.7,24.010897662860813,
stop,sst_images/Left_Arrow.bmp,sst_images/Stop_Arrow.bmp,none,1123,None,0,0,0,0,0,154,154,154,2,0,0.4439007720002337,stop,0.15000000000000002,1.123,2.179099227999766,0001,Scanner,R,2019_Aug_15_1410,stopSignal,3.0.7,24.010897662860813,
go,sst_images/Right_Arrow.bmp,None,2,710,None,0,0,0,0,0,155,155,155,2,1,0.4623910390000674,go,0.15000000000000002,0.71,1.71,0001,Scanner,R,2019_Aug_15_1410,stopSignal,3.0.7,24.010897662860813,
go,sst_images/Left_Arrow.bmp,None,1,716,None,0,0,0,0,0,156,156,156,1,1,0.5046715039998162,go,0.15000000000000002,0.716,1.716,0001,Scanner,R,2019_Aug_15_1410,stopSignal,3.0.7,24.010897662860813,
go,sst_images/Right_Arrow.bmp,None,2,928,None,0,0,0,0,0,157,157,157,2,1,0.4630948089998128,go,0.15000000000000002,0.928,1.928,0001,Scanner,R,2019_Aug_15_1410,stopSignal,3.0.7,24.010897662860813,
go,sst_images/Left_Arrow.bmp,None,1,740,None,0,0,0,0,0,158,158,158,1,1,0.4200609329991494,go,0.15000000000000002,0.74,1.74,0001,Scanner,R,2019_Aug_15_1410,stopSignal,3.0.7,24.010897662860813,
stop,sst_images/Left_Arrow.bmp,sst_images/Stop_Arrow.bmp,none,808,None,0,0,0,0,0,159,159,159,None,1,,stop,0.2,0.808,1.808,0001,Scanner,R,2019_Aug_15_1410,stopSignal,3.0.7,24.010897662860813,
go,sst_images/Left_Arrow.bmp,None,1,1533,None,0,0,0,0,0,160,160,160,1,1,0.5036002500000905,go,0.2,1.533,2.533,0001,Scanner,R,2019_Aug_15_1410,stopSignal,3.0.7,24.010897662860813,
go,sst_images/Right_Arrow.bmp,None,2,788,None,0,0,0,0,0,161,161,161,2,1,0.378497432999211,go,0.2,0.788,1.788,0001,Scanner,R,2019_Aug_15_1410,stopSignal,3.0.7,24.010897662860813,
go,sst_images/Left_Arrow.bmp,None,1,782,None,0,0,0,0,0,162,162,162,1,1,0.460396041000422,go,0.2,0.782,1.782,0001,Scanner,R,2019_Aug_15_1410,stopSignal,3.0.7,24.010897662860813,
go,sst_images/Right_Arrow.bmp,None,2,752,None,0,0,0,0,0,163,163,163,2,1,0.4642614340000364,go,0.2,0.752,1.752,0001,Scanner,R,2019_Aug_15_1410,stopSignal,3.0.7,24.010897662860813,
go,sst_images/Right_Arrow.bmp,None,2,1093,None,0,0,0,0,0,164,164,164,2,1,0.7141499419994943,go,0.2,1.093,2.093,0001,Scanner,R,2019_Aug_15_1410,stopSignal,3.0.7,24.010897662860813,
go,sst_images/Right_Arrow.bmp,None,2,774,None,0,0,0,0,0,165,165,165,2,1,0.7095411739992414,go,0.2,0.774,1.774,0001,Scanner,R,2019_Aug_15_1410,stopSignal,3.0.7,24.010897662860813,
go,sst_images/Left_Arrow.bmp,None,1,765,None,0,0,0,0,0,166,166,166,1,1,0.7106310999997731,go,0.2,0.765,1.7650000000000001,0001,Scanner,R,2019_Aug_15_1410,stopSignal,3.0.7,24.010897662860813,
go,sst_images/Right_Arrow.bmp,None,2,733,None,0,0,0,0,0,167,167,167,2,1,0.4596968529995138,go,0.2,0.733,1.733,0001,Scanner,R,2019_Aug_15_1410,stopSignal,3.0.7,24.010897662860813,
go,sst_images/Right_Arrow.bmp,None,2,752,None,0,0,0,0,0,168,168,168,2,1,0.5456074489993625,go,0.2,0.752,1.752,0001,Scanner,R,2019_Aug_15_1410,stopSignal,3.0.7,24.010897662860813,
stop,sst_images/Left_Arrow.bmp,sst_images/Stop_Arrow.bmp,none,866,None,0,0,0,0,0,169,169,169,1,0,0.5375841380000566,stop,0.15000000000000002,0.866,1.8284158619999435,0001,Scanner,R,2019_Aug_15_1410,stopSignal,3.0.7,24.010897662860813,
go,sst_images/Left_Arrow.bmp,None,1,886,None,0,0,0,0,0,170,170,170,1,1,0.5457725179994668,go,0.15000000000000002,0.886,1.8860000000000001,0001,Scanner,R,2019_Aug_15_1410,stopSignal,3.0.7,24.010897662860813,
go,sst_images/Right_Arrow.bmp,None,2,1212,None,0,0,0,0,0,171,171,171,2,1,0.46389023499978066,go,0.15000000000000002,1.212,2.2119999999999997,0001,Scanner,R,2019_Aug_15_1410,stopSignal,3.0.7,24.010897662860813,
go,sst_images/Right_Arrow.bmp,None,2,958,None,0,0,0,0,0,172,172,172,2,1,0.6708316940002987,go,0.15000000000000002,0.958,1.958,0001,Scanner,R,2019_Aug_15_1410,stopSignal,3.0.7,24.010897662860813,
go,sst_images/Right_Arrow.bmp,None,2,740,None,0,0,0,0,0,173,173,173,2,1,0.5883545319993573,go,0.15000000000000002,0.74,1.74,0001,Scanner,R,2019_Aug_15_1410,stopSignal,3.0.7,24.010897662860813,
stop,sst_images/Right_Arrow.bmp,sst_images/Stop_Arrow.bmp,none,752,None,0,0,0,0,0,174,174,174,None,1,,stop,0.2,0.752,1.752,0001,Scanner,R,2019_Aug_15_1410,stopSignal,3.0.7,24.010897662860813,
go,sst_images/Left_Arrow.bmp,None,1,850,None,0,0,0,0,0,175,175,175,1,1,0.5880330720001439,go,0.2,0.85,1.85,0001,Scanner,R,2019_Aug_15_1410,stopSignal,3.0.7,24.010897662860813,
stop,sst_images/Left_Arrow.bmp,sst_images/Stop_Arrow.bmp,none,774,None,0,0,0,0,0,176,176,176,None,1,,stop,0.25,0.774,1.774,0001,Scanner,R,2019_Aug_15_1410,stopSignal,3.0.7,24.010897662860813,
go,sst_images/Right_Arrow.bmp,None,2,779,None,0,0,0,0,0,177,177,177,2,1,0.5053634349997083,go,0.25,0.779,1.779,0001,Scanner,R,2019_Aug_15_1410,stopSignal,3.0.7,24.010897662860813,
go,sst_images/Left_Arrow.bmp,None,1,918,None,0,0,0,0,0,178,178,178,1,1,0.5847843809997357,go,0.25,0.918,1.9180000000000001,0001,Scanner,R,2019_Aug_15_1410,stopSignal,3.0.7,24.010897662860813,
go,sst_images/Right_Arrow.bmp,None,2,902,1062.0,0,0,0,0,0,179,179,179,2,1,0.5873100950002481,go,0.25,0.902,1.9020000000000001,0001,Scanner,R,2019_Aug_15_1410,stopSignal,3.0.7,24.010897662860813,
,,,,,,0,0,0,0,,,,,,,,,,,,0001,Scanner,R,2019_Aug_15_1410,stopSignal,3.0.7,24.010897662860813,
