trial_type,arrow_1,arrow_2,corrAns,jitter,run_end_fixation,trials.thisRepN,trials.thisTrialN,trials.thisN,trials.thisIndex,key_response.keys,key_response.corr,key_response.rt,trial_t.routineEndVal,ss_delay,iti_duration,SOA,participant,prac_or_scan,handedness,run,date,expName,psychopyVersion,frameRate,
go,sst_images/Left_Arrow.bmp,None,1,1295,None,0,0,0,0,1,1,0.77229419399373,go,0.05,1.295,2.295,0006,Scanner,R,1,2019_Aug_20_1513,stopSignal,3.0.7,23.983325199967833,
go,sst_images/Right_Arrow.bmp,None,2,792,None,0,1,1,1,2,1,0.5458721530012554,go,0.05,0.792,1.792,0006,Scanner,R,1,2019_Aug_20_1513,stopSignal,3.0.7,23.983325199967833,
stop,sst_images/Right_Arrow.bmp,sst_images/Stop_Arrow.bmp,none,738,None,0,2,2,2,None,1,,stop,0.1,0.738,1.738,0006,Scanner,R,1,2019_Aug_20_1513,stopSignal,3.0.7,23.983325199967833,
go,sst_images/Right_Arrow.bmp,None,2,750,None,0,3,3,3,2,1,0.5881079140017391,go,0.1,0.75,1.75,0006,Scanner,R,1,2019_Aug_20_1513,stopSignal,3.0.7,23.983325199967833,
go,sst_images/Left_Arrow.bmp,None,1,869,None,0,4,4,4,1,1,0.5891426320013124,go,0.1,0.869,1.869,0006,Scanner,R,1,2019_Aug_20_1513,stopSignal,3.0.7,23.983325199967833,
go,sst_images/Left_Arrow.bmp,None,1,732,None,0,5,5,5,1,1,0.6296518839953933,go,0.1,0.732,1.732,0006,Scanner,R,1,2019_Aug_20_1513,stopSignal,3.0.7,23.983325199967833,
stop,sst_images/Left_Arrow.bmp,sst_images/Stop_Arrow.bmp,none,721,None,0,6,6,6,None,1,,stop,0.15000000000000002,0.721,1.721,0006,Scanner,R,1,2019_Aug_20_1513,stopSignal,3.0.7,23.983325199967833,
go,sst_images/Right_Arrow.bmp,None,2,769,None,0,7,7,7,2,1,0.7091308500021114,go,0.15000000000000002,0.769,1.7690000000000001,0006,Scanner,R,1,2019_Aug_20_1513,stopSignal,3.0.7,23.983325199967833,
go,sst_images/Left_Arrow.bmp,None,1,708,None,0,8,8,8,1,1,0.5424545389978448,go,0.15000000000000002,0.708,1.708,0006,Scanner,R,1,2019_Aug_20_1513,stopSignal,3.0.7,23.983325199967833,
go,sst_images/Right_Arrow.bmp,None,2,838,None,0,9,9,9,2,1,0.713787278997188,go,0.15000000000000002,0.838,1.838,0006,Scanner,R,1,2019_Aug_20_1513,stopSignal,3.0.7,23.983325199967833,
go,sst_images/Right_Arrow.bmp,None,2,712,None,0,10,10,10,2,1,0.6264554040026269,go,0.15000000000000002,0.712,1.712,0006,Scanner,R,1,2019_Aug_20_1513,stopSignal,3.0.7,23.983325199967833,
go,sst_images/Left_Arrow.bmp,None,1,707,None,0,11,11,11,1,1,0.6241331380006159,go,0.15000000000000002,0.707,1.7069999999999999,0006,Scanner,R,1,2019_Aug_20_1513,stopSignal,3.0.7,23.983325199967833,
stop,sst_images/Left_Arrow.bmp,sst_images/Stop_Arrow.bmp,none,711,None,0,12,12,12,None,1,,stop,0.2,0.711,1.711,0006,Scanner,R,1,2019_Aug_20_1513,stopSignal,3.0.7,23.983325199967833,
go,sst_images/Right_Arrow.bmp,None,2,725,None,0,13,13,13,2,1,0.5453926289992523,go,0.2,0.725,1.725,0006,Scanner,R,1,2019_Aug_20_1513,stopSignal,3.0.7,23.983325199967833,
go,sst_images/Left_Arrow.bmp,None,1,771,None,0,14,14,14,1,1,0.7094003829988651,go,0.2,0.771,1.771,0006,Scanner,R,1,2019_Aug_20_1513,stopSignal,3.0.7,23.983325199967833,
go,sst_images/Left_Arrow.bmp,None,1,830,None,0,15,15,15,1,1,0.5874646860029316,go,0.2,0.83,1.83,0006,Scanner,R,1,2019_Aug_20_1513,stopSignal,3.0.7,23.983325199967833,
go,sst_images/Left_Arrow.bmp,None,1,797,None,0,16,16,16,1,1,0.6531940999993822,go,0.2,0.797,1.7970000000000002,0006,Scanner,R,1,2019_Aug_20_1513,stopSignal,3.0.7,23.983325199967833,
go,sst_images/Right_Arrow.bmp,None,2,832,None,0,17,17,17,2,1,0.5454693719948409,go,0.2,0.832,1.8319999999999999,0006,Scanner,R,1,2019_Aug_20_1513,stopSignal,3.0.7,23.983325199967833,
go,sst_images/Left_Arrow.bmp,None,1,762,None,0,18,18,18,1,1,0.4952421729976777,go,0.2,0.762,1.762,0006,Scanner,R,1,2019_Aug_20_1513,stopSignal,3.0.7,23.983325199967833,
stop,sst_images/Right_Arrow.bmp,sst_images/Stop_Arrow.bmp,none,717,None,0,19,19,19,2,0,0.4924971509972238,stop,0.15000000000000002,0.717,1.7245028490027763,0006,Scanner,R,1,2019_Aug_20_1513,stopSignal,3.0.7,23.983325199967833,
go,sst_images/Left_Arrow.bmp,None,1,728,None,0,20,20,20,1,1,0.588150265000877,go,0.15000000000000002,0.728,1.728,0006,Scanner,R,1,2019_Aug_20_1513,stopSignal,3.0.7,23.983325199967833,
go,sst_images/Right_Arrow.bmp,None,2,803,None,0,21,21,21,2,1,0.5452603170051589,go,0.15000000000000002,0.803,1.803,0006,Scanner,R,1,2019_Aug_20_1513,stopSignal,3.0.7,23.983325199967833,
stop,sst_images/Right_Arrow.bmp,sst_images/Stop_Arrow.bmp,none,781,None,0,22,22,22,None,1,,stop,0.2,0.781,1.781,0006,Scanner,R,1,2019_Aug_20_1513,stopSignal,3.0.7,23.983325199967833,
go,sst_images/Left_Arrow.bmp,None,1,961,None,0,23,23,23,1,1,0.5037014879999333,go,0.2,0.961,1.9609999999999999,0006,Scanner,R,1,2019_Aug_20_1513,stopSignal,3.0.7,23.983325199967833,
stop,sst_images/Left_Arrow.bmp,sst_images/Stop_Arrow.bmp,none,772,None,0,24,24,24,1,0,0.5244787060000817,stop,0.15000000000000002,0.772,1.7475212939999183,0006,Scanner,R,1,2019_Aug_20_1513,stopSignal,3.0.7,23.983325199967833,
go,sst_images/Right_Arrow.bmp,None,2,959,None,0,25,25,25,2,1,0.8784696079965215,go,0.15000000000000002,0.959,1.959,0006,Scanner,R,1,2019_Aug_20_1513,stopSignal,3.0.7,23.983325199967833,
go,sst_images/Left_Arrow.bmp,None,1,1111,None,0,26,26,26,1,1,0.47627845499664545,go,0.15000000000000002,1.111,2.1109999999999998,0006,Scanner,R,1,2019_Aug_20_1513,stopSignal,3.0.7,23.983325199967833,
go,sst_images/Right_Arrow.bmp,None,2,718,None,0,27,27,27,2,1,0.7137453730028938,go,0.15000000000000002,0.718,1.718,0006,Scanner,R,1,2019_Aug_20_1513,stopSignal,3.0.7,23.983325199967833,
stop,sst_images/Right_Arrow.bmp,sst_images/Stop_Arrow.bmp,none,750,None,0,28,28,28,None,1,,stop,0.2,0.75,1.7499999999999998,0006,Scanner,R,1,2019_Aug_20_1513,stopSignal,3.0.7,23.983325199967833,
go,sst_images/Right_Arrow.bmp,None,2,768,None,0,29,29,29,2,1,0.629335659003118,go,0.2,0.768,1.768,0006,Scanner,R,1,2019_Aug_20_1513,stopSignal,3.0.7,23.983325199967833,
go,sst_images/Left_Arrow.bmp,None,1,1426,None,0,30,30,30,1,1,0.7147987310017925,go,0.2,1.426,2.426,0006,Scanner,R,1,2019_Aug_20_1513,stopSignal,3.0.7,23.983325199967833,
go,sst_images/Right_Arrow.bmp,None,2,1700,None,0,31,31,31,2,1,0.4180608669994399,go,0.2,1.7,2.7,0006,Scanner,R,1,2019_Aug_20_1513,stopSignal,3.0.7,23.983325199967833,
go,sst_images/Right_Arrow.bmp,None,2,965,None,0,32,32,32,2,1,0.6228356100036763,go,0.2,0.965,1.9649999999999999,0006,Scanner,R,1,2019_Aug_20_1513,stopSignal,3.0.7,23.983325199967833,
go,sst_images/Left_Arrow.bmp,None,1,704,None,0,33,33,33,1,1,0.6292209769962938,go,0.2,0.704,1.704,0006,Scanner,R,1,2019_Aug_20_1513,stopSignal,3.0.7,23.983325199967833,
go,sst_images/Right_Arrow.bmp,None,2,887,None,0,34,34,34,2,1,0.5460059179968084,go,0.2,0.887,1.887,0006,Scanner,R,1,2019_Aug_20_1513,stopSignal,3.0.7,23.983325199967833,
stop,sst_images/Right_Arrow.bmp,sst_images/Stop_Arrow.bmp,none,704,None,0,35,35,35,None,1,,stop,0.25,0.704,1.704,0006,Scanner,R,1,2019_Aug_20_1513,stopSignal,3.0.7,23.983325199967833,
go,sst_images/Left_Arrow.bmp,None,1,1431,None,0,36,36,36,1,1,0.5883281549977255,go,0.25,1.431,2.431,0006,Scanner,R,1,2019_Aug_20_1513,stopSignal,3.0.7,23.983325199967833,
go,sst_images/Left_Arrow.bmp,None,1,746,None,0,37,37,37,1,1,0.6299070180029958,go,0.25,0.746,1.746,0006,Scanner,R,1,2019_Aug_20_1513,stopSignal,3.0.7,23.983325199967833,
go,sst_images/Right_Arrow.bmp,None,2,709,None,0,38,38,38,2,1,0.5860966039981577,go,0.25,0.709,1.709,0006,Scanner,R,1,2019_Aug_20_1513,stopSignal,3.0.7,23.983325199967833,
stop,sst_images/Left_Arrow.bmp,sst_images/Stop_Arrow.bmp,none,894,None,0,39,39,39,1,0,0.5300147529997048,stop,0.2,0.894,1.9139852470002954,0006,Scanner,R,1,2019_Aug_20_1513,stopSignal,3.0.7,23.983325199967833,
go,sst_images/Right_Arrow.bmp,None,2,750,None,0,40,40,40,2,1,0.5319669550008257,go,0.2,0.75,1.75,0006,Scanner,R,1,2019_Aug_20_1513,stopSignal,3.0.7,23.983325199967833,
go,sst_images/Left_Arrow.bmp,None,1,1139,None,0,41,41,41,1,1,0.4397957159962971,go,0.2,1.139,2.1390000000000002,0006,Scanner,R,1,2019_Aug_20_1513,stopSignal,3.0.7,23.983325199967833,
go,sst_images/Left_Arrow.bmp,None,1,711,None,0,42,42,42,1,1,0.6278200020024087,go,0.2,0.711,1.7109999999999999,0006,Scanner,R,1,2019_Aug_20_1513,stopSignal,3.0.7,23.983325199967833,
go,sst_images/Right_Arrow.bmp,None,2,738,None,0,43,43,43,2,1,0.5435274280025624,go,0.2,0.738,1.738,0006,Scanner,R,1,2019_Aug_20_1513,stopSignal,3.0.7,23.983325199967833,
go,sst_images/Left_Arrow.bmp,None,1,706,None,0,44,44,44,1,1,0.4987481489952188,go,0.2,0.706,1.706,0006,Scanner,R,1,2019_Aug_20_1513,stopSignal,3.0.7,23.983325199967833,
go,sst_images/Left_Arrow.bmp,None,1,1016,None,0,45,45,45,1,1,0.588808209002309,go,0.2,1.016,2.016,0006,Scanner,R,1,2019_Aug_20_1513,stopSignal,3.0.7,23.983325199967833,
go,sst_images/Right_Arrow.bmp,None,2,1071,None,0,46,46,46,2,1,0.5448464969958877,go,0.2,1.071,2.0709999999999997,0006,Scanner,R,1,2019_Aug_20_1513,stopSignal,3.0.7,23.983325199967833,
go,sst_images/Right_Arrow.bmp,None,2,913,None,0,47,47,47,2,1,0.5881152879956062,go,0.2,0.913,1.913,0006,Scanner,R,1,2019_Aug_20_1513,stopSignal,3.0.7,23.983325199967833,
go,sst_images/Right_Arrow.bmp,None,2,941,None,0,48,48,48,2,1,0.5435738560045138,go,0.2,0.941,1.9409999999999998,0006,Scanner,R,1,2019_Aug_20_1513,stopSignal,3.0.7,23.983325199967833,
go,sst_images/Left_Arrow.bmp,None,1,1253,None,0,49,49,49,1,1,0.4874360270041507,go,0.2,1.253,2.253,0006,Scanner,R,1,2019_Aug_20_1513,stopSignal,3.0.7,23.983325199967833,
go,sst_images/Left_Arrow.bmp,None,1,1230,None,0,50,50,50,1,1,0.6292721349964268,go,0.2,1.23,2.23,0006,Scanner,R,1,2019_Aug_20_1513,stopSignal,3.0.7,23.983325199967833,
go,sst_images/Left_Arrow.bmp,None,1,870,None,0,51,51,51,1,1,0.6712944339960814,go,0.2,0.87,1.87,0006,Scanner,R,1,2019_Aug_20_1513,stopSignal,3.0.7,23.983325199967833,
go,sst_images/Right_Arrow.bmp,None,2,881,None,0,52,52,52,2,1,0.6309611200049403,go,0.2,0.881,1.881,0006,Scanner,R,1,2019_Aug_20_1513,stopSignal,3.0.7,23.983325199967833,
stop,sst_images/Right_Arrow.bmp,sst_images/Stop_Arrow.bmp,none,954,None,0,53,53,53,None,1,,stop,0.25,0.954,1.954,0006,Scanner,R,1,2019_Aug_20_1513,stopSignal,3.0.7,23.983325199967833,
go,sst_images/Right_Arrow.bmp,None,2,784,None,0,54,54,54,2,1,0.5836759180019726,go,0.25,0.784,1.784,0006,Scanner,R,1,2019_Aug_20_1513,stopSignal,3.0.7,23.983325199967833,
go,sst_images/Left_Arrow.bmp,None,1,1789,None,0,55,55,55,1,1,0.6310595989998546,go,0.25,1.789,2.7889999999999997,0006,Scanner,R,1,2019_Aug_20_1513,stopSignal,3.0.7,23.983325199967833,
go,sst_images/Left_Arrow.bmp,None,1,919,None,0,56,56,56,1,1,0.6297282530067605,go,0.25,0.919,1.919,0006,Scanner,R,1,2019_Aug_20_1513,stopSignal,3.0.7,23.983325199967833,
go,sst_images/Left_Arrow.bmp,None,1,1155,None,0,57,57,57,1,1,0.5874090319994139,go,0.25,1.155,2.1550000000000002,0006,Scanner,R,1,2019_Aug_20_1513,stopSignal,3.0.7,23.983325199967833,
go,sst_images/Right_Arrow.bmp,None,2,716,None,0,58,58,58,2,1,0.6723358780000126,go,0.25,0.716,1.716,0006,Scanner,R,1,2019_Aug_20_1513,stopSignal,3.0.7,23.983325199967833,
go,sst_images/Left_Arrow.bmp,None,1,791,None,0,59,59,59,1,1,0.588349317004031,go,0.25,0.791,1.791,0006,Scanner,R,1,2019_Aug_20_1513,stopSignal,3.0.7,23.983325199967833,
go,sst_images/Left_Arrow.bmp,None,1,786,None,0,60,60,60,1,1,0.7110175740017439,go,0.25,0.786,1.786,0006,Scanner,R,1,2019_Aug_20_1513,stopSignal,3.0.7,23.983325199967833,
go,sst_images/Right_Arrow.bmp,None,2,987,None,0,61,61,61,2,1,0.7958095139983925,go,0.25,0.987,1.987,0006,Scanner,R,1,2019_Aug_20_1513,stopSignal,3.0.7,23.983325199967833,
stop,sst_images/Left_Arrow.bmp,sst_images/Stop_Arrow.bmp,none,1076,None,0,62,62,62,1,0,0.5321506280015456,stop,0.2,1.076,2.0938493719984543,0006,Scanner,R,1,2019_Aug_20_1513,stopSignal,3.0.7,23.983325199967833,
go,sst_images/Right_Arrow.bmp,None,2,957,None,0,63,63,63,2,1,0.7957581209993805,go,0.2,0.957,1.9569999999999999,0006,Scanner,R,1,2019_Aug_20_1513,stopSignal,3.0.7,23.983325199967833,
go,sst_images/Left_Arrow.bmp,None,1,1855,None,0,64,64,64,1,1,0.581692984997062,go,0.2,1.855,2.855,0006,Scanner,R,1,2019_Aug_20_1513,stopSignal,3.0.7,23.983325199967833,
go,sst_images/Right_Arrow.bmp,None,2,825,None,0,65,65,65,2,1,0.5002281950000906,go,0.2,0.825,1.825,0006,Scanner,R,1,2019_Aug_20_1513,stopSignal,3.0.7,23.983325199967833,
go,sst_images/Left_Arrow.bmp,None,1,979,None,0,66,66,66,1,1,0.5449971510024625,go,0.2,0.979,1.979,0006,Scanner,R,1,2019_Aug_20_1513,stopSignal,3.0.7,23.983325199967833,
go,sst_images/Right_Arrow.bmp,None,2,985,None,0,67,67,67,2,1,0.629130070003157,go,0.2,0.985,1.9849999999999999,0006,Scanner,R,1,2019_Aug_20_1513,stopSignal,3.0.7,23.983325199967833,
go,sst_images/Right_Arrow.bmp,None,2,1699,None,0,68,68,68,2,1,0.5680523019982502,go,0.2,1.699,2.699,0006,Scanner,R,1,2019_Aug_20_1513,stopSignal,3.0.7,23.983325199967833,
go,sst_images/Left_Arrow.bmp,None,1,894,None,0,69,69,69,1,1,0.6310505869987537,go,0.2,0.894,1.8940000000000001,0006,Scanner,R,1,2019_Aug_20_1513,stopSignal,3.0.7,23.983325199967833,
go,sst_images/Right_Arrow.bmp,None,2,730,None,0,70,70,70,2,1,0.8784926099979202,go,0.2,0.73,1.73,0006,Scanner,R,1,2019_Aug_20_1513,stopSignal,3.0.7,23.983325199967833,
go,sst_images/Left_Arrow.bmp,None,1,798,None,0,71,71,71,1,1,0.5438436690019444,go,0.2,0.798,1.798,0006,Scanner,R,1,2019_Aug_20_1513,stopSignal,3.0.7,23.983325199967833,
stop,sst_images/Right_Arrow.bmp,sst_images/Stop_Arrow.bmp,none,790,None,0,72,72,72,None,1,,stop,0.25,0.79,1.79,0006,Scanner,R,1,2019_Aug_20_1513,stopSignal,3.0.7,23.983325199967833,
go,sst_images/Right_Arrow.bmp,None,2,795,None,0,73,73,73,2,1,0.631119846002548,go,0.25,0.795,1.795,0006,Scanner,R,1,2019_Aug_20_1513,stopSignal,3.0.7,23.983325199967833,
go,sst_images/Left_Arrow.bmp,None,1,778,None,0,74,74,74,1,1,0.5881399019999662,go,0.25,0.778,1.778,0006,Scanner,R,1,2019_Aug_20_1513,stopSignal,3.0.7,23.983325199967833,
stop,sst_images/Right_Arrow.bmp,sst_images/Stop_Arrow.bmp,none,833,None,0,75,75,75,None,1,,stop,0.3,0.833,1.833,0006,Scanner,R,1,2019_Aug_20_1513,stopSignal,3.0.7,23.983325199967833,
go,sst_images/Right_Arrow.bmp,None,2,984,None,0,76,76,76,2,1,0.5865901279976242,go,0.3,0.984,1.984,0006,Scanner,R,1,2019_Aug_20_1513,stopSignal,3.0.7,23.983325199967833,
go,sst_images/Right_Arrow.bmp,None,2,1092,None,0,77,77,77,2,1,0.546674167002493,go,0.3,1.092,2.092,0006,Scanner,R,1,2019_Aug_20_1513,stopSignal,3.0.7,23.983325199967833,
go,sst_images/Left_Arrow.bmp,None,1,750,None,0,78,78,78,1,1,0.6708832479998819,go,0.3,0.75,1.75,0006,Scanner,R,1,2019_Aug_20_1513,stopSignal,3.0.7,23.983325199967833,
go,sst_images/Left_Arrow.bmp,None,1,894,None,0,79,79,79,1,1,0.7557876579958247,go,0.3,0.894,1.8940000000000001,0006,Scanner,R,1,2019_Aug_20_1513,stopSignal,3.0.7,23.983325199967833,
go,sst_images/Right_Arrow.bmp,None,2,724,None,0,80,80,80,2,1,0.6281973899967852,go,0.3,0.724,1.724,0006,Scanner,R,1,2019_Aug_20_1513,stopSignal,3.0.7,23.983325199967833,
go,sst_images/Right_Arrow.bmp,None,2,788,None,0,81,81,81,2,1,0.6231341230013641,go,0.3,0.788,1.788,0006,Scanner,R,1,2019_Aug_20_1513,stopSignal,3.0.7,23.983325199967833,
stop,sst_images/Left_Arrow.bmp,sst_images/Stop_Arrow.bmp,none,857,None,0,82,82,82,None,1,,stop,0.35,0.857,1.857,0006,Scanner,R,1,2019_Aug_20_1513,stopSignal,3.0.7,23.983325199967833,
go,sst_images/Right_Arrow.bmp,None,2,909,None,0,83,83,83,2,1,0.5441592970018974,go,0.35,0.909,1.909,0006,Scanner,R,1,2019_Aug_20_1513,stopSignal,3.0.7,23.983325199967833,
go,sst_images/Left_Arrow.bmp,None,1,1176,None,0,84,84,84,1,1,0.6273315509970416,go,0.35,1.176,2.176,0006,Scanner,R,1,2019_Aug_20_1513,stopSignal,3.0.7,23.983325199967833,
go,sst_images/Left_Arrow.bmp,None,1,811,None,0,85,85,85,1,1,0.7087839029991301,go,0.35,0.811,1.811,0006,Scanner,R,1,2019_Aug_20_1513,stopSignal,3.0.7,23.983325199967833,
stop,sst_images/Right_Arrow.bmp,sst_images/Stop_Arrow.bmp,none,1155,None,0,86,86,86,2,0,0.6290085459986585,stop,0.3,1.155,2.175991454001341,0006,Scanner,R,1,2019_Aug_20_1513,stopSignal,3.0.7,23.983325199967833,
go,sst_images/Right_Arrow.bmp,None,2,717,None,0,87,87,87,2,1,0.5834710810013348,go,0.3,0.717,1.717,0006,Scanner,R,1,2019_Aug_20_1513,stopSignal,3.0.7,23.983325199967833,
go,sst_images/Left_Arrow.bmp,None,1,1064,None,0,88,88,88,1,1,0.5845381429971894,go,0.3,1.064,2.064,0006,Scanner,R,1,2019_Aug_20_1513,stopSignal,3.0.7,23.983325199967833,
go,sst_images/Right_Arrow.bmp,None,2,954,None,0,89,89,89,2,1,0.4631348480033921,go,0.3,0.954,1.954,0006,Scanner,R,1,2019_Aug_20_1513,stopSignal,3.0.7,23.983325199967833,
stop,sst_images/Right_Arrow.bmp,sst_images/Stop_Arrow.bmp,none,946,None,0,90,90,90,2,0,0.5636706660006894,stop,0.25,0.946,1.9823293339993107,0006,Scanner,R,1,2019_Aug_20_1513,stopSignal,3.0.7,23.983325199967833,
go,sst_images/Left_Arrow.bmp,None,1,1146,None,0,91,91,91,1,1,0.6730264119978528,go,0.25,1.146,2.146,0006,Scanner,R,1,2019_Aug_20_1513,stopSignal,3.0.7,23.983325199967833,
go,sst_images/Right_Arrow.bmp,None,2,843,None,0,92,92,92,2,1,0.5906198970042169,go,0.25,0.843,1.843,0006,Scanner,R,1,2019_Aug_20_1513,stopSignal,3.0.7,23.983325199967833,
go,sst_images/Left_Arrow.bmp,None,1,1717,None,0,93,93,93,1,1,0.5460937140014721,go,0.25,1.717,2.717,0006,Scanner,R,1,2019_Aug_20_1513,stopSignal,3.0.7,23.983325199967833,
go,sst_images/Left_Arrow.bmp,None,1,745,None,0,94,94,94,1,1,0.6293097820016555,go,0.25,0.745,1.745,0006,Scanner,R,1,2019_Aug_20_1513,stopSignal,3.0.7,23.983325199967833,
go,sst_images/Left_Arrow.bmp,None,1,1658,None,0,95,95,95,1,1,0.671321073998115,go,0.25,1.658,2.658,0006,Scanner,R,1,2019_Aug_20_1513,stopSignal,3.0.7,23.983325199967833,
go,sst_images/Right_Arrow.bmp,None,2,704,None,0,96,96,96,2,1,0.5815277590008918,go,0.25,0.704,1.704,0006,Scanner,R,1,2019_Aug_20_1513,stopSignal,3.0.7,23.983325199967833,
stop,sst_images/Left_Arrow.bmp,sst_images/Stop_Arrow.bmp,none,881,None,0,97,97,97,None,1,,stop,0.3,0.881,1.881,0006,Scanner,R,1,2019_Aug_20_1513,stopSignal,3.0.7,23.983325199967833,
go,sst_images/Left_Arrow.bmp,None,1,848,None,0,98,98,98,1,1,0.5837488000033773,go,0.3,0.848,1.8479999999999999,0006,Scanner,R,1,2019_Aug_20_1513,stopSignal,3.0.7,23.983325199967833,
go,sst_images/Right_Arrow.bmp,None,2,730,None,0,99,99,99,2,1,0.6236193980003009,go,0.3,0.73,1.73,0006,Scanner,R,1,2019_Aug_20_1513,stopSignal,3.0.7,23.983325199967833,
go,sst_images/Right_Arrow.bmp,None,2,1039,None,0,100,100,100,2,1,0.6294171869958518,go,0.3,1.039,2.0389999999999997,0006,Scanner,R,1,2019_Aug_20_1513,stopSignal,3.0.7,23.983325199967833,
go,sst_images/Left_Arrow.bmp,None,1,1855,None,0,101,101,101,1,1,0.6267861390006146,go,0.3,1.855,2.855,0006,Scanner,R,1,2019_Aug_20_1513,stopSignal,3.0.7,23.983325199967833,
stop,sst_images/Left_Arrow.bmp,sst_images/Stop_Arrow.bmp,none,772,None,0,102,102,102,None,1,,stop,0.35,0.772,1.772,0006,Scanner,R,1,2019_Aug_20_1513,stopSignal,3.0.7,23.983325199967833,
go,sst_images/Right_Arrow.bmp,None,2,1076,None,0,103,103,103,2,1,0.669008153003233,go,0.35,1.076,2.076,0006,Scanner,R,1,2019_Aug_20_1513,stopSignal,3.0.7,23.983325199967833,
go,sst_images/Right_Arrow.bmp,None,2,857,None,0,104,104,104,2,1,0.6273736490038573,go,0.35,0.857,1.857,0006,Scanner,R,1,2019_Aug_20_1513,stopSignal,3.0.7,23.983325199967833,
go,sst_images/Left_Arrow.bmp,None,1,815,None,0,105,105,105,1,1,0.8342973480030196,go,0.35,0.815,1.815,0006,Scanner,R,1,2019_Aug_20_1513,stopSignal,3.0.7,23.983325199967833,
stop,sst_images/Right_Arrow.bmp,sst_images/Stop_Arrow.bmp,none,1053,None,0,106,106,106,2,0,0.6518548200037912,stop,0.3,1.053,2.0511451799962086,0006,Scanner,R,1,2019_Aug_20_1513,stopSignal,3.0.7,23.983325199967833,
go,sst_images/Left_Arrow.bmp,None,1,778,None,0,107,107,107,1,1,0.7938032589954673,go,0.3,0.778,1.778,0006,Scanner,R,1,2019_Aug_20_1513,stopSignal,3.0.7,23.983325199967833,
go,sst_images/Right_Arrow.bmp,None,2,1337,None,0,108,108,108,2,1,0.7071121029948699,go,0.3,1.337,2.3369999999999997,0006,Scanner,R,1,2019_Aug_20_1513,stopSignal,3.0.7,23.983325199967833,
go,sst_images/Right_Arrow.bmp,None,2,758,None,0,109,109,109,2,1,0.6268517749995226,go,0.3,0.758,1.758,0006,Scanner,R,1,2019_Aug_20_1513,stopSignal,3.0.7,23.983325199967833,
go,sst_images/Left_Arrow.bmp,None,1,978,None,0,110,110,110,1,1,0.712664776998281,go,0.3,0.978,1.978,0006,Scanner,R,1,2019_Aug_20_1513,stopSignal,3.0.7,23.983325199967833,
stop,sst_images/Left_Arrow.bmp,sst_images/Stop_Arrow.bmp,none,728,None,0,111,111,111,None,1,,stop,0.35,0.728,1.728,0006,Scanner,R,1,2019_Aug_20_1513,stopSignal,3.0.7,23.983325199967833,
go,sst_images/Right_Arrow.bmp,None,2,895,None,0,112,112,112,2,1,0.837590306000493,go,0.35,0.895,1.895,0006,Scanner,R,1,2019_Aug_20_1513,stopSignal,3.0.7,23.983325199967833,
go,sst_images/Left_Arrow.bmp,None,1,869,None,0,113,113,113,1,1,0.584449649999442,go,0.35,0.869,1.869,0006,Scanner,R,1,2019_Aug_20_1513,stopSignal,3.0.7,23.983325199967833,
stop,sst_images/Left_Arrow.bmp,sst_images/Stop_Arrow.bmp,none,736,None,0,114,114,114,1,0,0.6274896260001697,stop,0.3,0.736,1.7585103739998302,0006,Scanner,R,1,2019_Aug_20_1513,stopSignal,3.0.7,23.983325199967833,
go,sst_images/Right_Arrow.bmp,None,2,1150,None,0,115,115,115,2,1,0.6689598110024235,go,0.3,1.15,2.15,0006,Scanner,R,1,2019_Aug_20_1513,stopSignal,3.0.7,23.983325199967833,
stop,sst_images/Right_Arrow.bmp,sst_images/Stop_Arrow.bmp,none,830,None,0,116,116,116,None,1,,stop,0.35,0.83,1.83,0006,Scanner,R,1,2019_Aug_20_1513,stopSignal,3.0.7,23.983325199967833,
go,sst_images/Left_Arrow.bmp,None,1,837,None,0,117,117,117,1,1,0.8379695440016803,go,0.35,0.837,1.837,0006,Scanner,R,1,2019_Aug_20_1513,stopSignal,3.0.7,23.983325199967833,
go,sst_images/Right_Arrow.bmp,None,2,851,None,0,118,118,118,2,1,0.6283591890023672,go,0.35,0.851,1.851,0006,Scanner,R,1,2019_Aug_20_1513,stopSignal,3.0.7,23.983325199967833,
go,sst_images/Left_Arrow.bmp,None,1,1031,None,0,119,119,119,1,1,0.7520947500015609,go,0.35,1.031,2.0309999999999997,0006,Scanner,R,1,2019_Aug_20_1513,stopSignal,3.0.7,23.983325199967833,
stop,sst_images/Left_Arrow.bmp,sst_images/Stop_Arrow.bmp,none,735,None,0,120,120,120,None,1,,stop,0.39999999999999997,0.735,1.735,0006,Scanner,R,1,2019_Aug_20_1513,stopSignal,3.0.7,23.983325199967833,
go,sst_images/Right_Arrow.bmp,None,2,1006,None,0,121,121,121,None,0,,go,0.39999999999999997,1.006,2.0060000000000002,0006,Scanner,R,1,2019_Aug_20_1513,stopSignal,3.0.7,23.983325199967833,
go,sst_images/Left_Arrow.bmp,None,1,953,None,0,122,122,122,1,1,0.7555264430047828,go,0.39999999999999997,0.953,1.9529999999999998,0006,Scanner,R,1,2019_Aug_20_1513,stopSignal,3.0.7,23.983325199967833,
stop,sst_images/Right_Arrow.bmp,sst_images/Stop_Arrow.bmp,none,887,None,0,123,123,123,None,1,,stop,0.44999999999999996,0.887,1.887,0006,Scanner,R,1,2019_Aug_20_1513,stopSignal,3.0.7,23.983325199967833,
go,sst_images/Right_Arrow.bmp,None,2,766,None,0,124,124,124,2,1,0.6718803269977798,go,0.44999999999999996,0.766,1.766,0006,Scanner,R,1,2019_Aug_20_1513,stopSignal,3.0.7,23.983325199967833,
go,sst_images/Left_Arrow.bmp,None,1,978,None,0,125,125,125,1,1,0.753688933000376,go,0.44999999999999996,0.978,1.978,0006,Scanner,R,1,2019_Aug_20_1513,stopSignal,3.0.7,23.983325199967833,
go,sst_images/Right_Arrow.bmp,None,2,734,None,0,126,126,126,2,1,0.5899310840031831,go,0.44999999999999996,0.734,1.734,0006,Scanner,R,1,2019_Aug_20_1513,stopSignal,3.0.7,23.983325199967833,
go,sst_images/Right_Arrow.bmp,None,2,833,None,0,127,127,127,2,1,0.7117386239988264,go,0.44999999999999996,0.833,1.833,0006,Scanner,R,1,2019_Aug_20_1513,stopSignal,3.0.7,23.983325199967833,
go,sst_images/Left_Arrow.bmp,None,1,876,None,0,128,128,128,1,1,0.5027943429959123,go,0.44999999999999996,0.876,1.876,0006,Scanner,R,1,2019_Aug_20_1513,stopSignal,3.0.7,23.983325199967833,
go,sst_images/Left_Arrow.bmp,None,1,1001,None,0,129,129,129,1,1,0.5852536469974439,go,0.44999999999999996,1.001,2.001,0006,Scanner,R,1,2019_Aug_20_1513,stopSignal,3.0.7,23.983325199967833,
go,sst_images/Left_Arrow.bmp,None,1,795,None,0,130,130,130,1,1,0.5827895670008729,go,0.44999999999999996,0.795,1.795,0006,Scanner,R,1,2019_Aug_20_1513,stopSignal,3.0.7,23.983325199967833,
stop,sst_images/Right_Arrow.bmp,sst_images/Stop_Arrow.bmp,none,790,None,0,131,131,131,2,0,0.6271845340015716,stop,0.39999999999999997,0.79,1.9128154659984284,0006,Scanner,R,1,2019_Aug_20_1513,stopSignal,3.0.7,23.983325199967833,
go,sst_images/Right_Arrow.bmp,None,2,717,None,0,132,132,132,2,1,0.5420407050041831,go,0.39999999999999997,0.717,1.717,0006,Scanner,R,1,2019_Aug_20_1513,stopSignal,3.0.7,23.983325199967833,
go,sst_images/Left_Arrow.bmp,None,1,767,None,0,133,133,133,1,1,0.5049853739983519,go,0.39999999999999997,0.767,1.767,0006,Scanner,R,1,2019_Aug_20_1513,stopSignal,3.0.7,23.983325199967833,
go,sst_images/Left_Arrow.bmp,None,1,785,None,0,134,134,134,1,1,0.6665486019992386,go,0.39999999999999997,0.785,1.7850000000000001,0006,Scanner,R,1,2019_Aug_20_1513,stopSignal,3.0.7,23.983325199967833,
go,sst_images/Left_Arrow.bmp,None,1,1589,None,0,135,135,135,1,1,0.5460236220023944,go,0.39999999999999997,1.589,2.589,0006,Scanner,R,1,2019_Aug_20_1513,stopSignal,3.0.7,23.983325199967833,
go,sst_images/Right_Arrow.bmp,None,2,741,None,0,136,136,136,2,1,0.5717906880017836,go,0.39999999999999997,0.741,1.741,0006,Scanner,R,1,2019_Aug_20_1513,stopSignal,3.0.7,23.983325199967833,
stop,sst_images/Left_Arrow.bmp,sst_images/Stop_Arrow.bmp,none,809,None,0,137,137,137,None,1,,stop,0.44999999999999996,0.809,1.809,0006,Scanner,R,1,2019_Aug_20_1513,stopSignal,3.0.7,23.983325199967833,
go,sst_images/Left_Arrow.bmp,None,1,708,None,0,138,138,138,1,1,0.6293166350005777,go,0.44999999999999996,0.708,1.708,0006,Scanner,R,1,2019_Aug_20_1513,stopSignal,3.0.7,23.983325199967833,
go,sst_images/Left_Arrow.bmp,None,1,914,None,0,139,139,139,1,1,0.6696453250042396,go,0.44999999999999996,0.914,1.9140000000000001,0006,Scanner,R,1,2019_Aug_20_1513,stopSignal,3.0.7,23.983325199967833,
go,sst_images/Right_Arrow.bmp,None,2,722,None,0,140,140,140,2,1,0.7106614400036051,go,0.44999999999999996,0.722,1.722,0006,Scanner,R,1,2019_Aug_20_1513,stopSignal,3.0.7,23.983325199967833,
go,sst_images/Right_Arrow.bmp,None,2,750,None,0,141,141,141,2,1,0.6695111239969265,go,0.44999999999999996,0.75,1.75,0006,Scanner,R,1,2019_Aug_20_1513,stopSignal,3.0.7,23.983325199967833,
go,sst_images/Left_Arrow.bmp,None,1,1433,None,0,142,142,142,1,1,0.7151633760004188,go,0.44999999999999996,1.433,2.433,0006,Scanner,R,1,2019_Aug_20_1513,stopSignal,3.0.7,23.983325199967833,
go,sst_images/Right_Arrow.bmp,None,2,712,None,0,143,143,143,2,1,0.6687846919958247,go,0.44999999999999996,0.712,1.712,0006,Scanner,R,1,2019_Aug_20_1513,stopSignal,3.0.7,23.983325199967833,
go,sst_images/Left_Arrow.bmp,None,1,759,None,0,144,144,144,1,1,0.42201345499779563,go,0.44999999999999996,0.759,1.759,0006,Scanner,R,1,2019_Aug_20_1513,stopSignal,3.0.7,23.983325199967833,
go,sst_images/Left_Arrow.bmp,None,1,1102,None,0,145,145,145,1,1,0.6285818480027956,go,0.44999999999999996,1.102,2.1020000000000003,0006,Scanner,R,1,2019_Aug_20_1513,stopSignal,3.0.7,23.983325199967833,
go,sst_images/Right_Arrow.bmp,None,2,721,None,0,146,146,146,2,1,0.6279629530035891,go,0.44999999999999996,0.721,1.721,0006,Scanner,R,1,2019_Aug_20_1513,stopSignal,3.0.7,23.983325199967833,
go,sst_images/Left_Arrow.bmp,None,1,738,None,0,147,147,147,1,1,0.585294682001404,go,0.44999999999999996,0.738,1.738,0006,Scanner,R,1,2019_Aug_20_1513,stopSignal,3.0.7,23.983325199967833,
go,sst_images/Right_Arrow.bmp,None,2,1051,None,0,148,148,148,2,1,0.7085355710005388,go,0.44999999999999996,1.051,2.051,0006,Scanner,R,1,2019_Aug_20_1513,stopSignal,3.0.7,23.983325199967833,
go,sst_images/Left_Arrow.bmp,None,1,1399,None,0,149,149,149,1,1,0.5882345779973548,go,0.44999999999999996,1.399,2.399,0006,Scanner,R,1,2019_Aug_20_1513,stopSignal,3.0.7,23.983325199967833,
go,sst_images/Right_Arrow.bmp,None,2,820,None,0,150,150,150,2,1,0.5043239139995421,go,0.44999999999999996,0.82,1.8199999999999998,0006,Scanner,R,1,2019_Aug_20_1513,stopSignal,3.0.7,23.983325199967833,
go,sst_images/Right_Arrow.bmp,None,2,1121,None,0,151,151,151,1,0,0.5864565059964661,go,0.44999999999999996,1.121,2.121,0006,Scanner,R,1,2019_Aug_20_1513,stopSignal,3.0.7,23.983325199967833,
go,sst_images/Left_Arrow.bmp,None,1,909,None,0,152,152,152,1,1,0.6682804500014754,go,0.44999999999999996,0.909,1.909,0006,Scanner,R,1,2019_Aug_20_1513,stopSignal,3.0.7,23.983325199967833,
go,sst_images/Right_Arrow.bmp,None,2,1041,None,0,153,153,153,2,1,0.9197876149992226,go,0.44999999999999996,1.041,2.041,0006,Scanner,R,1,2019_Aug_20_1513,stopSignal,3.0.7,23.983325199967833,
go,sst_images/Left_Arrow.bmp,None,1,900,None,0,154,154,154,1,1,0.6279426879991661,go,0.44999999999999996,0.9,1.9,0006,Scanner,R,1,2019_Aug_20_1513,stopSignal,3.0.7,23.983325199967833,
go,sst_images/Right_Arrow.bmp,None,2,825,None,0,155,155,155,2,1,0.5854450170008931,go,0.44999999999999996,0.825,1.825,0006,Scanner,R,1,2019_Aug_20_1513,stopSignal,3.0.7,23.983325199967833,
stop,sst_images/Left_Arrow.bmp,sst_images/Stop_Arrow.bmp,none,1003,None,0,156,156,156,1,0,0.6523066890003975,stop,0.39999999999999997,1.003,2.100693310999602,0006,Scanner,R,1,2019_Aug_20_1513,stopSignal,3.0.7,23.983325199967833,
go,sst_images/Left_Arrow.bmp,None,1,1309,None,0,157,157,157,1,1,0.5875595999968937,go,0.39999999999999997,1.309,2.309,0006,Scanner,R,1,2019_Aug_20_1513,stopSignal,3.0.7,23.983325199967833,
go,sst_images/Right_Arrow.bmp,None,2,782,None,0,158,158,158,2,1,0.6278603469982045,go,0.39999999999999997,0.782,1.782,0006,Scanner,R,1,2019_Aug_20_1513,stopSignal,3.0.7,23.983325199967833,
stop,sst_images/Left_Arrow.bmp,sst_images/Stop_Arrow.bmp,none,1121,None,0,159,159,159,1,0,0.4861713560021599,stop,0.35,1.121,2.33482864399784,0006,Scanner,R,1,2019_Aug_20_1513,stopSignal,3.0.7,23.983325199967833,
go,sst_images/Left_Arrow.bmp,None,1,877,None,0,160,160,160,1,1,0.6297665250021964,go,0.35,0.877,1.877,0006,Scanner,R,1,2019_Aug_20_1513,stopSignal,3.0.7,23.983325199967833,
go,sst_images/Left_Arrow.bmp,None,1,922,None,0,161,161,161,1,1,0.7147400610047043,go,0.35,0.922,1.9220000000000002,0006,Scanner,R,1,2019_Aug_20_1513,stopSignal,3.0.7,23.983325199967833,
go,sst_images/Right_Arrow.bmp,None,2,1017,None,0,162,162,162,2,1,0.5451311849974445,go,0.35,1.017,2.017,0006,Scanner,R,1,2019_Aug_20_1513,stopSignal,3.0.7,23.983325199967833,
go,sst_images/Left_Arrow.bmp,None,1,759,None,0,163,163,163,1,1,0.5062779029976809,go,0.35,0.759,1.759,0006,Scanner,R,1,2019_Aug_20_1513,stopSignal,3.0.7,23.983325199967833,
go,sst_images/Right_Arrow.bmp,None,2,775,None,0,164,164,164,2,1,0.5451304210000671,go,0.35,0.775,1.775,0006,Scanner,R,1,2019_Aug_20_1513,stopSignal,3.0.7,23.983325199967833,
go,sst_images/Right_Arrow.bmp,None,2,1003,None,0,165,165,165,2,1,0.6240534719981952,go,0.35,1.003,2.003,0006,Scanner,R,1,2019_Aug_20_1513,stopSignal,3.0.7,23.983325199967833,
go,sst_images/Right_Arrow.bmp,None,2,925,None,0,166,166,166,2,1,0.5879128559972742,go,0.35,0.925,1.925,0006,Scanner,R,1,2019_Aug_20_1513,stopSignal,3.0.7,23.983325199967833,
go,sst_images/Left_Arrow.bmp,None,1,728,None,0,167,167,167,1,1,0.8366890240067733,go,0.35,0.728,1.728,0006,Scanner,R,1,2019_Aug_20_1513,stopSignal,3.0.7,23.983325199967833,
go,sst_images/Right_Arrow.bmp,None,2,1170,None,0,168,168,168,2,1,0.584567922000133,go,0.35,1.17,2.17,0006,Scanner,R,1,2019_Aug_20_1513,stopSignal,3.0.7,23.983325199967833,
go,sst_images/Right_Arrow.bmp,None,2,1099,None,0,169,169,169,2,1,0.5897575869967113,go,0.35,1.099,2.099,0006,Scanner,R,1,2019_Aug_20_1513,stopSignal,3.0.7,23.983325199967833,
go,sst_images/Left_Arrow.bmp,None,1,756,None,0,170,170,170,1,1,0.546144956999342,go,0.35,0.756,1.756,0006,Scanner,R,1,2019_Aug_20_1513,stopSignal,3.0.7,23.983325199967833,
go,sst_images/Right_Arrow.bmp,None,2,721,None,0,171,171,171,2,1,0.5022737580002286,go,0.35,0.721,1.721,0006,Scanner,R,1,2019_Aug_20_1513,stopSignal,3.0.7,23.983325199967833,
go,sst_images/Right_Arrow.bmp,None,2,957,None,0,172,172,172,2,1,0.6268836449962691,go,0.35,0.957,1.9569999999999999,0006,Scanner,R,1,2019_Aug_20_1513,stopSignal,3.0.7,23.983325199967833,
go,sst_images/Right_Arrow.bmp,None,2,806,None,0,173,173,173,2,1,0.7147200719991815,go,0.35,0.806,1.806,0006,Scanner,R,1,2019_Aug_20_1513,stopSignal,3.0.7,23.983325199967833,
go,sst_images/Left_Arrow.bmp,None,1,951,None,0,174,174,174,1,1,0.7560168790005264,go,0.35,0.951,1.951,0006,Scanner,R,1,2019_Aug_20_1513,stopSignal,3.0.7,23.983325199967833,
go,sst_images/Right_Arrow.bmp,None,2,808,None,0,175,175,175,2,1,0.747711227995751,go,0.35,0.808,1.808,0006,Scanner,R,1,2019_Aug_20_1513,stopSignal,3.0.7,23.983325199967833,
go,sst_images/Left_Arrow.bmp,None,1,720,None,0,176,176,176,1,1,0.9205835079992539,go,0.35,0.72,1.72,0006,Scanner,R,1,2019_Aug_20_1513,stopSignal,3.0.7,23.983325199967833,
stop,sst_images/Right_Arrow.bmp,sst_images/Stop_Arrow.bmp,none,815,None,0,177,177,177,None,1,,stop,0.39999999999999997,0.815,1.8150000000000002,0006,Scanner,R,1,2019_Aug_20_1513,stopSignal,3.0.7,23.983325199967833,
go,sst_images/Right_Arrow.bmp,None,2,736,None,0,178,178,178,None,0,,go,0.39999999999999997,0.736,1.736,0006,Scanner,R,1,2019_Aug_20_1513,stopSignal,3.0.7,23.983325199967833,
stop,sst_images/Left_Arrow.bmp,sst_images/Stop_Arrow.bmp,none,707,1421.0,0,179,179,179,None,1,,stop,0.44999999999999996,0.707,1.7069999999999999,0006,Scanner,R,1,2019_Aug_20_1513,stopSignal,3.0.7,23.983325199967833,
,,,,,,,,,,,,,,,,,0006,Scanner,R,1,2019_Aug_20_1513,stopSignal,3.0.7,23.983325199967833,
