Condition,FixationDur,runs.thisRepN,runs.thisTrialN,runs.thisN,runs.thisIndex,trials.thisRepN,trials.thisTrialN,trials.thisN,trials.thisIndex,instructFig.started,instructFig.stopped,PrepFixation.started,PrepFixation.stopped,TrialOrder,cueImage.started,cueImage.stopped,FixationDur,fixation.started,fixation.stopped,fixationResp.keys,fixationResp.started,fixationResp.stopped,feedbackDur,rt_list,Trial counter,Target.started,Target.stopped,probeResp.keys,probeResp.corr,probeResp.started,probeResp.stopped,msg,TrackEarnings,TrialType,NonNeutralTrialsNum,probeDur,percentacc_total,meanrt,UserAcc,Acc,AdjTrial,AdjTrialInc,feedbackMsg.started,feedbackMsg.stopped,AdjRTmsg,fixationResp.rt,probeResp.rt,participant,prac_or_scan,practiceRT,date,expName,psychopyVersion,frameRate,
LgPun,2500,0,0,0,0,0,0,0,0,10.927271898000072,None,33.16834306200053,None,TimeVersion6.csv,35.16511286400055,None,2500,37.182326419000674,None,None,37.182326419000674,None,1.69,[],1,39.684901878000346,None,None,0,39.684901878000346,None,You lost $5.00!,-5,4,1,0.31,0.0,nan,[0],0,0,3,39.95664603500063,None,,,,0001,Scanner,0.31,2019_Aug_15_1401,MID,3.1.5,23.9329252772798,
LgReward,1500,0,0,0,0,0,1,1,1,,,,,,41.6232764790002,None,1500,43.63380025400056,None,None,43.63380025400056,None,1.69,[],2,45.15151840600083,None,None,0,45.15151840600083,None,You did not win $5.00!,-5,1,2,0.31,0.0,nan,"[0, 0]",0,0,3,45.41505474600035,None,,,,0001,Scanner,0.31,2019_Aug_15_1401,MID,3.1.5,23.9329252772798,
LgPun,1500,0,0,0,0,0,2,2,2,,,,,,47.08204658300019,None,1500,49.10053703600079,None,None,49.10053703600079,None,1.69,[],3,50.60160253200047,None,None,0,50.60160253200047,None,You lost $5.00!,-10,4,3,0.38,0.0,nan,[],0.0,3,3,50.87377614700017,None,Adjusting RT...,,,0001,Scanner,0.31,2019_Aug_15_1401,MID,3.1.5,23.9329252772798,
SmallReward,2000,0,0,0,0,0,3,3,3,,,,,,52.540462081999976,None,2000,54.55188832100066,None,1,54.55188832100066,None,1.62,[],4,56.573103735000586,None,None,0,56.573103735000586,None,You did not win $0.20!,-10,2,4,0.38,0.0,nan,[0],0.0,3,3,56.91757105000033,None,,0.3344057989997964,,0001,Scanner,0.31,2019_Aug_15_1401,MID,3.1.5,23.9329252772798,
Triangle,2000,0,0,0,0,0,4,4,4,,,,,,58.542859258000135,None,2000,60.552268665000156,None,None,60.552268665000156,None,1.62,[],5,62.55938436300039,None,None,0,62.55938436300039,None,You did not win or lose anything!,-10,3,4,0.38,0.0,nan,[0],0.0,3,3,62.916166803000124,None,,,,0001,Scanner,0.31,2019_Aug_15_1401,MID,3.1.5,23.9329252772798,
SmallReward,1500,0,0,0,0,0,5,5,5,,,,,,64.54120544500074,None,1500,66.55278946800081,None,1,66.55278946800081,None,1.62,[],6,68.07128969500081,None,None,0,68.07128969500081,None,You did not win $0.20!,-10,2,5,0.38,0.0,nan,"[0, 0]",0.0,3,3,68.41951756600065,None,,0.395503417999862,,0001,Scanner,0.31,2019_Aug_15_1401,MID,3.1.5,23.9329252772798,
Triangle,1500,0,0,0,0,0,6,6,6,,,,,,70.04167400000006,None,1500,72.05381840300015,None,None,72.05381840300015,None,1.62,[0.2672770990002391],7,73.55903899500026,None,1,1,73.55903899500026,None,You did not win or lose anything!,-10,3,5,0.38,14.285714285714285,0.2672770990002391,"[0, 0]",0.0,3,3,73.91660896800022,None,,,0.2672770990002391,0001,Scanner,0.31,2019_Aug_15_1401,MID,3.1.5,23.9329252772798,
LgPun,1500,0,0,0,0,0,7,7,7,,,,,,75.54062330600027,None,1500,77.55448010000055,None,None,77.55448010000055,None,1.62,"[0.2672770990002391, 0.1001334010006758]",8,79.06202064600075,None,1,1,79.06202064600075,None,You did not lose $5.00!,-10,4,6,0.43,25.0,0.18370525000045745,[],16.666666666666664,6,3,79.41686700500031,None,Adjusting RT...,,0.1001334010006758,0001,Scanner,0.31,2019_Aug_15_1401,MID,3.1.5,23.9329252772798,
LgReward,2000,0,0,0,0,0,8,8,8,,,,,,81.04193432500051,None,2000,83.05523598300078,None,1,83.05523598300078,None,1.57,"[0.2672770990002391, 0.1001334010006758]",9,85.0724117740001,None,None,0,85.0724117740001,None,You did not win $5.00!,-10,1,7,0.43,22.22222222222222,0.18370525000045745,[0],16.666666666666664,6,3,85.46275686000081,None,,1.5870575899998585,,0001,Scanner,0.31,2019_Aug_15_1401,MID,3.1.5,23.9329252772798,
SmallPun,4000,0,0,0,0,0,9,9,9,,,,,,87.0005639660003,None,4000,89.00355761600076,None,None,89.00355761600076,None,1.57,"[0.2672770990002391, 0.1001334010006758, 0.30220959999951447]",10,93.02202867800042,None,1,1,93.02202867800042,None,You did not lose $0.20!,-10,5,8,0.43,30.0,0.22320670000014312,"[0, 1]",16.666666666666664,6,3,93.41760689400053,None,,,0.30220959999951447,0001,Scanner,0.31,2019_Aug_15_1401,MID,3.1.5,23.9329252772798,
LgPun,1500,0,0,0,0,0,10,10,10,,,,,,94.95937655200032,None,1500,96.97364173500046,None,None,96.97364173500046,None,1.57,"[0.2672770990002391, 0.1001334010006758, 0.30220959999951447]",11,98.47748875100024,None,None,0,98.47748875100024,None,You lost $5.00!,-15,4,9,0.47,27.27272727272727,0.22320670000014312,[],33.33333333333333,9,3,98.87539199000003,None,Adjusting RT...,,,0001,Scanner,0.31,2019_Aug_15_1401,MID,3.1.5,23.9329252772798,
SmallReward,1500,0,0,0,0,0,11,11,11,,,,,,100.4177643210005,None,1500,102.42769362300078,None,None,102.42769362300078,None,1.53,"[0.2672770990002391, 0.1001334010006758, 0.30220959999951447]",12,103.95775240600051,None,None,0,103.95775240600051,None,You did not win $0.20!,-15,2,10,0.47,25.0,0.22320670000014312,[0],33.33333333333333,9,3,104.37618301200018,None,,,,0001,Scanner,0.31,2019_Aug_15_1401,MID,3.1.5,23.9329252772798,
LgReward,4000,0,0,0,0,0,12,12,12,,,,,,105.91816819500036,None,4000,107.92317828200066,None,None,107.92317828200066,None,1.53,"[0.2672770990002391, 0.1001334010006758, 0.30220959999951447, 0.3476288520005255]",13,111.94665509700008,None,1,1,111.94665509700008,None,You won $5.00!,-10,1,11,0.47,30.76923076923077,0.2543122380002387,"[0, 1]",33.33333333333333,9,3,112.3805734840007,None,,,0.3476288520005255,0001,Scanner,0.31,2019_Aug_15_1401,MID,3.1.5,23.9329252772798,
Triangle,1500,0,0,0,0,0,13,13,13,,,,,,113.8760185430001,None,1500,115.89221449600063,None,None,115.89221449600063,None,1.53,"[0.2672770990002391, 0.1001334010006758, 0.30220959999951447, 0.3476288520005255]",14,117.39167838899994,None,None,0,117.39167838899994,None,You did not win or lose anything!,-10,3,11,0.47,28.57142857142857,0.2543122380002387,"[0, 1]",33.33333333333333,9,3,117.8354338650006,None,,,,0001,Scanner,0.31,2019_Aug_15_1401,MID,3.1.5,23.9329252772798,
LgPun,2000,0,0,0,0,0,14,14,14,,,,,,119.33554881500004,None,2000,121.34433232600077,None,None,121.34433232600077,None,1.53,"[0.2672770990002391, 0.1001334010006758, 0.30220959999951447, 0.3476288520005255]",15,123.35232746900056,None,None,0,123.35232746900056,None,You lost $5.00!,-15,4,12,0.5,26.666666666666668,0.2543122380002387,[],33.33333333333333,12,3,123.79738508800074,None,Adjusting RT...,,,0001,Scanner,0.31,2019_Aug_15_1401,MID,3.1.5,23.9329252772798,
Triangle,3000,0,0,0,0,0,15,15,15,,,,,,125.29471215800004,None,3000,127.31041487000039,None,None,127.31041487000039,None,1.5,"[0.2672770990002391, 0.1001334010006758, 0.30220959999951447, 0.3476288520005255]",16,130.31323263100057,None,None,0,130.31323263100057,None,You did not win or lose anything!,-15,3,12,0.5,25.0,0.2543122380002387,[],33.33333333333333,12,3,130.79381237600046,None,,,,0001,Scanner,0.31,2019_Aug_15_1401,MID,3.1.5,23.9329252772798,
SmallPun,1500,0,0,0,0,0,16,16,16,,,,,,132.29414417600037,None,1500,134.31204458900083,None,None,134.31204458900083,None,1.5,"[0.2672770990002391, 0.1001334010006758, 0.30220959999951447, 0.3476288520005255, 0.38886918400021386]",17,135.81141218700031,None,1,1,135.81141218700031,None,You did not lose $0.20!,-15,5,13,0.5,29.411764705882355,0.28122362720023375,[1],33.33333333333333,12,3,136.2945707150002,None,,,0.38886918400021386,0001,Scanner,0.31,2019_Aug_15_1401,MID,3.1.5,23.9329252772798,
Triangle,3500,0,0,0,0,0,17,17,17,,,,,,137.79447168800016,None,3500,139.80033416300012,None,None,139.80033416300012,None,1.5,"[0.2672770990002391, 0.1001334010006758, 0.30220959999951447, 0.3476288520005255, 0.38886918400021386]",18,143.3128719490005,None,None,0,143.3128719490005,None,You did not win or lose anything!,-15,3,13,0.5,27.77777777777778,0.28122362720023375,[1],33.33333333333333,12,3,143.79489293000006,None,,,,0001,Scanner,0.31,2019_Aug_15_1401,MID,3.1.5,23.9329252772798,
LgPun,3000,0,0,0,0,0,18,18,18,,,,,,145.29490353000074,None,3000,147.31344140300007,None,1,147.31344140300007,None,1.5,"[0.2672770990002391, 0.1001334010006758, 0.30220959999951447, 0.3476288520005255, 0.38886918400021386]",19,150.31375413100068,None,None,0,150.31375413100068,None,You lost $5.00!,-20,4,14,0.5,26.31578947368421,0.28122362720023375,"[1, 0]",33.33333333333333,12,3,150.79392823200033,None,,1.3888549590001276,,0001,Scanner,0.31,2019_Aug_15_1401,MID,3.1.5,23.9329252772798,
LgReward,1500,0,0,0,0,0,19,19,19,,,,,,152.29539771700001,None,1500,154.31352606400014,None,None,154.31352606400014,None,1.5,"[0.2672770990002391, 0.1001334010006758, 0.30220959999951447, 0.3476288520005255, 0.38886918400021386, 0.339089108000735]",20,155.8301947610007,None,1,1,155.8301947610007,None,You won $5.00!,-15,1,15,0.5,30.0,0.2908678740003173,[],49.99999999999999,15,3,156.29545639700063,None,Adjusting RT...,,0.339089108000735,0001,Scanner,0.31,2019_Aug_15_1401,MID,3.1.5,23.9329252772798,
LgPun,1500,0,0,0,0,0,20,20,20,,,,,,157.79500762099997,None,1500,159.8150253520007,None,None,159.8150253520007,None,1.5,"[0.2672770990002391, 0.1001334010006758, 0.30220959999951447, 0.3476288520005255, 0.38886918400021386, 0.339089108000735, 0.38360768599977746]",21,161.31461432300057,None,1,1,161.31461432300057,None,You did not lose $5.00!,-15,4,16,0.5,33.33333333333333,0.30411641857166877,[1],49.99999999999999,15,3,161.79549015000066,None,,,0.38360768599977746,0001,Scanner,0.31,2019_Aug_15_1401,MID,3.1.5,23.9329252772798,
LgReward,1500,0,0,0,0,0,21,21,21,,,,,,163.29582617100004,None,1500,165.3151936560007,None,None,165.3151936560007,None,1.5,"[0.2672770990002391, 0.1001334010006758, 0.30220959999951447, 0.3476288520005255, 0.38886918400021386, 0.339089108000735, 0.38360768599977746, 0.34629565500017634]",22,166.8318623240002,None,1,1,166.8318623240002,None,You won $5.00!,-10,1,17,0.5,36.36363636363637,0.3093888231252322,"[1, 1]",49.99999999999999,15,3,167.29585204200066,None,,,0.34629565500017634,0001,Scanner,0.31,2019_Aug_15_1401,MID,3.1.5,23.9329252772798,
LgReward,1500,0,0,0,0,0,22,22,22,,,,,,168.79624210600014,None,1500,170.8160381910002,None,None,170.8160381910002,None,1.5,"[0.2672770990002391, 0.1001334010006758, 0.30220959999951447, 0.3476288520005255, 0.38886918400021386, 0.339089108000735, 0.38360768599977746, 0.34629565500017634, 0.33708518000003096]",23,172.3321534910001,None,1,1,172.3321534910001,None,You won $5.00!,-5,1,18,0.47,39.130434782608695,0.3124661961113209,[],83.33333333333333,18,3,172.79618556600053,None,Adjusting RT...,,0.33708518000003096,0001,Scanner,0.31,2019_Aug_15_1401,MID,3.1.5,23.9329252772798,
Triangle,1500,0,0,0,0,0,23,23,23,,,,,,174.29649260400038,None,1500,176.31712163000066,None,None,176.31712163000066,None,1.53,"[0.2672770990002391, 0.1001334010006758, 0.30220959999951447, 0.3476288520005255, 0.38886918400021386, 0.339089108000735, 0.38360768599977746, 0.34629565500017634, 0.33708518000003096]",24,177.81746744300017,None,None,0,177.81746744300017,None,You did not win or lose anything!,-5,3,18,0.47,37.5,0.3124661961113209,[],83.33333333333333,18,3,178.25462217900076,None,,,,0001,Scanner,0.31,2019_Aug_15_1401,MID,3.1.5,23.9329252772798,
SmallReward,3500,0,0,0,0,0,24,24,24,,,,,,179.79653977199996,None,3500,181.8040423730008,None,1,181.8040423730008,None,1.53,"[0.2672770990002391, 0.1001334010006758, 0.30220959999951447, 0.3476288520005255, 0.38886918400021386, 0.339089108000735, 0.38360768599977746, 0.34629565500017634, 0.33708518000003096]",25,185.32579491100023,None,None,0,185.32579491100023,None,You did not win $0.20!,-5,2,19,0.47,36.0,0.3124661961113209,[0],83.33333333333333,18,3,185.75898635300018,None,,0.4002393310001935,,0001,Scanner,0.31,2019_Aug_15_1401,MID,3.1.5,23.9329252772798,
SmallPun,2000,0,0,0,0,0,25,25,25,,,,,,187.2551000450003,None,2000,189.26796107500013,None,None,189.26796107500013,None,1.53,"[0.2672770990002391, 0.1001334010006758, 0.30220959999951447, 0.3476288520005255, 0.38886918400021386, 0.339089108000735, 0.38360768599977746, 0.34629565500017634, 0.33708518000003096]",26,191.27389527600008,None,None,0,191.27389527600008,None,You lost $0.20!,-5.2,5,20,0.47,34.61538461538461,0.3124661961113209,"[0, 0]",83.33333333333333,18,3,191.71347274300024,None,,,,0001,Scanner,0.31,2019_Aug_15_1401,MID,3.1.5,23.9329252772798,
SmallReward,2500,0,0,0,0,0,26,26,26,,,,,,193.25529941700006,None,2500,195.2697353070007,None,None,195.2697353070007,None,1.53,"[0.2672770990002391, 0.1001334010006758, 0.30220959999951447, 0.3476288520005255, 0.38886918400021386, 0.339089108000735, 0.38360768599977746, 0.34629565500017634, 0.33708518000003096, 0.3304176820001885]",27,197.78686762400048,None,1,1,197.78686762400048,None,You won $0.20!,-5.0,2,21,0.44999999999999996,37.03703703703704,0.3142613447002077,[],66.66666666666666,21,3,198.21746915700078,None,Adjusting RT...,,0.3304176820001885,0001,Scanner,0.31,2019_Aug_15_1401,MID,3.1.5,23.9329252772798,
SmallPun,2500,0,0,0,0,0,27,27,27,,,,,,199.71385962000022,None,2500,201.72206436300075,None,None,201.72206436300075,None,1.55,"[0.2672770990002391, 0.1001334010006758, 0.30220959999951447, 0.3476288520005255, 0.38886918400021386, 0.339089108000735, 0.38360768599977746, 0.34629565500017634, 0.33708518000003096, 0.3304176820001885, 0.3480253249999805]",28,204.23016025500056,None,1,1,204.23016025500056,None,You did not lose $0.20!,-5.0,5,22,0.44999999999999996,39.285714285714285,0.3173307974547325,[1],66.66666666666666,21,3,204.67454275300042,None,,,0.3480253249999805,0001,Scanner,0.31,2019_Aug_15_1401,MID,3.1.5,23.9329252772798,
Triangle,4000,0,0,0,0,0,28,28,28,,,,,,206.2136739940006,None,4000,208.2232035950001,None,None,208.2232035950001,None,1.55,"[0.2672770990002391, 0.1001334010006758, 0.30220959999951447, 0.3476288520005255, 0.38886918400021386, 0.339089108000735, 0.38360768599977746, 0.34629565500017634, 0.33708518000003096, 0.3304176820001885, 0.3480253249999805]",29,212.2380415710004,None,None,0,212.2380415710004,None,You did not win or lose anything!,-5.0,3,22,0.44999999999999996,37.93103448275862,0.3173307974547325,[1],66.66666666666666,21,3,212.6724605040008,None,,,,0001,Scanner,0.31,2019_Aug_15_1401,MID,3.1.5,23.9329252772798,
LgPun,3500,0,0,0,0,0,29,29,29,,,,,,214.21454640499996,None,3500,216.22250180400079,None,None,216.22250180400079,None,1.55,"[0.2672770990002391, 0.1001334010006758, 0.30220959999951447, 0.3476288520005255, 0.38886918400021386, 0.339089108000735, 0.38360768599977746, 0.34629565500017634, 0.33708518000003096, 0.3304176820001885, 0.3480253249999805]",30,219.73999526600073,None,None,0,219.73999526600073,None,You lost $5.00!,-10.0,4,23,0.44999999999999996,36.666666666666664,0.3173307974547325,"[1, 0]",66.66666666666666,21,3,220.17307276300016,None,,,,0001,Scanner,0.31,2019_Aug_15_1401,MID,3.1.5,23.9329252772798,
Triangle,1500,0,0,0,0,0,30,30,30,,,,,,221.71424433300035,None,1500,223.72359094900003,None,None,223.72359094900003,None,1.55,"[0.2672770990002391, 0.1001334010006758, 0.30220959999951447, 0.3476288520005255, 0.38886918400021386, 0.339089108000735, 0.38360768599977746, 0.34629565500017634, 0.33708518000003096, 0.3304176820001885, 0.3480253249999805]",31,225.23942432200056,None,None,0,225.23942432200056,None,You did not win or lose anything!,-10.0,3,23,0.44999999999999996,35.483870967741936,0.3173307974547325,"[1, 0]",66.66666666666666,21,3,225.67326088100072,None,,,,0001,Scanner,0.31,2019_Aug_15_1401,MID,3.1.5,23.9329252772798,
LgReward,3000,0,0,0,0,0,31,31,31,,,,,,227.2153233120007,None,3000,229.2247073060007,None,None,229.2247073060007,None,1.55,"[0.2672770990002391, 0.1001334010006758, 0.30220959999951447, 0.3476288520005255, 0.38886918400021386, 0.339089108000735, 0.38360768599977746, 0.34629565500017634, 0.33708518000003096, 0.3304176820001885, 0.3480253249999805]",32,232.24347381400003,None,None,0,232.24347381400003,None,You did not win $5.00!,-10.0,1,24,0.48999999999999994,34.375,0.3173307974547325,[],33.33333333333333,24,3,232.67761039700054,None,Adjusting RT...,,,0001,Scanner,0.31,2019_Aug_15_1401,MID,3.1.5,23.9329252772798,
Triangle,2500,0,0,0,0,0,32,32,32,,,,,,234.21536186899993,None,2500,236.22660850400007,None,None,236.22660850400007,None,1.51,"[0.2672770990002391, 0.1001334010006758, 0.30220959999951447, 0.3476288520005255, 0.38886918400021386, 0.339089108000735, 0.38360768599977746, 0.34629565500017634, 0.33708518000003096, 0.3304176820001885, 0.3480253249999805]",33,238.73278639300042,None,None,0,238.73278639300042,None,You did not win or lose anything!,-10.0,3,24,0.48999999999999994,33.33333333333333,0.3173307974547325,[],33.33333333333333,24,3,239.21744659900014,None,,,,0001,Scanner,0.31,2019_Aug_15_1401,MID,3.1.5,23.9329252772798,
Triangle,2000,0,0,0,0,0,33,33,33,,,,,,240.715952474,None,2000,242.72542053600046,None,None,242.72542053600046,None,1.51,"[0.2672770990002391, 0.1001334010006758, 0.30220959999951447, 0.3476288520005255, 0.38886918400021386, 0.339089108000735, 0.38360768599977746, 0.34629565500017634, 0.33708518000003096, 0.3304176820001885, 0.3480253249999805]",34,244.7340447000006,None,None,0,244.7340447000006,None,You did not win or lose anything!,-10.0,3,24,0.48999999999999994,32.35294117647059,0.3173307974547325,[],33.33333333333333,24,3,245.2158240280005,None,,,,0001,Scanner,0.31,2019_Aug_15_1401,MID,3.1.5,23.9329252772798,
SmallReward,1500,0,0,0,0,0,34,34,34,,,,,,246.716171862,None,1500,248.72660298500068,None,None,248.72660298500068,None,1.51,"[0.2672770990002391, 0.1001334010006758, 0.30220959999951447, 0.3476288520005255, 0.38886918400021386, 0.339089108000735, 0.38360768599977746, 0.34629565500017634, 0.33708518000003096, 0.3304176820001885, 0.3480253249999805, 0.3458193369997389]",35,250.25043473000005,None,1,1,250.25043473000005,None,You won $0.20!,-9.8,2,25,0.48999999999999994,34.285714285714285,0.31970484241681635,[1],33.33333333333333,24,3,250.71639977500035,None,,,0.3458193369997389,0001,Scanner,0.31,2019_Aug_15_1401,MID,3.1.5,23.9329252772798,
LgPun,2000,0,0,0,0,0,35,35,35,,,,,,252.2156031330005,None,2000,254.22532611500083,None,None,254.22532611500083,None,1.51,"[0.2672770990002391, 0.1001334010006758, 0.30220959999951447, 0.3476288520005255, 0.38886918400021386, 0.339089108000735, 0.38360768599977746, 0.34629565500017634, 0.33708518000003096, 0.3304176820001885, 0.3480253249999805, 0.3458193369997389, 0.39781014600066555]",36,256.2264781490003,None,1,1,256.2264781490003,None,You did not lose $5.00!,-9.8,4,26,0.48999999999999994,36.11111111111111,0.32571294269249706,"[1, 1]",33.33333333333333,24,3,256.7201629380006,None,,,0.39781014600066555,0001,Scanner,0.31,2019_Aug_15_1401,MID,3.1.5,23.9329252772798,
SmallReward,3000,0,0,0,0,0,36,36,36,,,,,,258.21668084700013,None,3000,260.2276711990007,None,None,260.2276711990007,None,1.51,"[0.2672770990002391, 0.1001334010006758, 0.30220959999951447, 0.3476288520005255, 0.38886918400021386, 0.339089108000735, 0.38360768599977746, 0.34629565500017634, 0.33708518000003096, 0.3304176820001885, 0.3480253249999805, 0.3458193369997389, 0.39781014600066555, 0.31496547700044175]",37,263.24833722600033,None,1,1,263.24833722600033,None,You won $0.20!,-9.600000000000001,2,27,0.4699999999999999,37.83783783783784,0.32494526657163597,[],66.66666666666666,27,3,263.71878723400005,None,Adjusting RT...,,0.31496547700044175,0001,Scanner,0.31,2019_Aug_15_1401,MID,3.1.5,23.9329252772798,
LgReward,3500,0,0,0,0,0,37,37,37,,,,,,265.21865405600056,None,3500,267.22919839800034,None,None,267.22919839800034,None,1.53,"[0.2672770990002391, 0.1001334010006758, 0.30220959999951447, 0.3476288520005255, 0.38886918400021386, 0.339089108000735, 0.38360768599977746, 0.34629565500017634, 0.33708518000003096, 0.3304176820001885, 0.3480253249999805, 0.3458193369997389, 0.39781014600066555, 0.31496547700044175]",38,270.74628701000074,None,None,0,270.74628701000074,None,You did not win $5.00!,-9.600000000000001,1,28,0.4699999999999999,36.84210526315789,0.32494526657163597,[0],66.66666666666666,27,3,271.179380304,None,,,,0001,Scanner,0.31,2019_Aug_15_1401,MID,3.1.5,23.9329252772798,
SmallPun,2000,0,0,0,0,0,38,38,38,,,,,,272.6752119570001,None,2000,274.69721675800065,None,None,274.69721675800065,None,1.53,"[0.2672770990002391, 0.1001334010006758, 0.30220959999951447, 0.3476288520005255, 0.38886918400021386, 0.339089108000735, 0.38360768599977746, 0.34629565500017634, 0.33708518000003096, 0.3304176820001885, 0.3480253249999805, 0.3458193369997389, 0.39781014600066555, 0.31496547700044175]",39,276.69736803900014,None,None,0,276.69736803900014,None,You lost $0.20!,-9.8,5,29,0.4699999999999999,35.8974358974359,0.32494526657163597,"[0, 0]",66.66666666666666,27,3,277.13409995300026,None,,,,0001,Scanner,0.31,2019_Aug_15_1401,MID,3.1.5,23.9329252772798,
SmallReward,4000,0,0,0,0,0,39,39,39,,,,,,278.67629069600025,None,4000,280.6832674770003,None,None,280.6832674770003,None,1.53,"[0.2672770990002391, 0.1001334010006758, 0.30220959999951447, 0.3476288520005255, 0.38886918400021386, 0.339089108000735, 0.38360768599977746, 0.34629565500017634, 0.33708518000003096, 0.3304176820001885, 0.3480253249999805, 0.3458193369997389, 0.39781014600066555, 0.31496547700044175]",40,284.7127935660001,None,None,0,284.7127935660001,None,You did not win $0.20!,-9.8,2,30,0.48999999999999994,35.0,0.32494526657163597,[],50.0,30,3,285.133652814,None,Adjusting RT...,,,0001,Scanner,0.31,2019_Aug_15_1401,MID,3.1.5,23.9329252772798,
SmallPun,1500,0,0,0,0,0,40,40,40,,,,,,286.6760775010007,None,1500,288.6824350480001,None,None,288.6824350480001,None,1.51,"[0.2672770990002391, 0.1001334010006758, 0.30220959999951447, 0.3476288520005255, 0.38886918400021386, 0.339089108000735, 0.38360768599977746, 0.34629565500017634, 0.33708518000003096, 0.3304176820001885, 0.3480253249999805, 0.3458193369997389, 0.39781014600066555, 0.31496547700044175]",41,290.1985323070003,None,None,0,290.1985323070003,None,You lost $0.20!,-10.0,5,31,0.48999999999999994,34.146341463414636,0.32494526657163597,[0],50.0,30,3,290.6762990490006,None,,,,0001,Scanner,0.31,2019_Aug_15_1401,MID,3.1.5,23.9329252772798,
SmallReward,2000,0,0,0,0,0,41,41,41,,,,,,292.1761657780007,None,2000,294.1839823500004,None,None,294.1839823500004,None,1.51,"[0.2672770990002391, 0.1001334010006758, 0.30220959999951447, 0.3476288520005255, 0.38886918400021386, 0.339089108000735, 0.38360768599977746, 0.34629565500017634, 0.33708518000003096, 0.3304176820001885, 0.3480253249999805, 0.3458193369997389, 0.39781014600066555, 0.31496547700044175, 0.3662859140004002]",42,296.21500623300017,None,1,1,296.21500623300017,None,You won $0.20!,-9.8,2,32,0.48999999999999994,35.714285714285715,0.3277013097335536,"[0, 1]",50.0,30,3,296.6767464200002,None,,,0.3662859140004002,0001,Scanner,0.31,2019_Aug_15_1401,MID,3.1.5,23.9329252772798,
SmallReward,1500,0,0,0,0,0,42,42,42,,,,,,298.1766120450002,None,1500,300.1861869280001,None,None,300.1861869280001,None,1.51,"[0.2672770990002391, 0.1001334010006758, 0.30220959999951447, 0.3476288520005255, 0.38886918400021386, 0.339089108000735, 0.38360768599977746, 0.34629565500017634, 0.33708518000003096, 0.3304176820001885, 0.3480253249999805, 0.3458193369997389, 0.39781014600066555, 0.31496547700044175, 0.3662859140004002]",43,301.7047101240005,None,None,0,301.7047101240005,None,You did not win $0.20!,-9.8,2,33,0.5,34.883720930232556,0.3277013097335536,[],16.666666666666664,33,3,302.18081599500056,None,Adjusting RT...,,,0001,Scanner,0.31,2019_Aug_15_1401,MID,3.1.5,23.9329252772798,
SmallPun,1500,0,0,0,0,0,43,43,43,,,,,,303.67724181800077,None,1500,305.68294335000064,None,None,305.68294335000064,None,1.5,"[0.2672770990002391, 0.1001334010006758, 0.30220959999951447, 0.3476288520005255, 0.38886918400021386, 0.339089108000735, 0.38360768599977746, 0.34629565500017634, 0.33708518000003096, 0.3304176820001885, 0.3480253249999805, 0.3458193369997389, 0.39781014600066555, 0.31496547700044175, 0.3662859140004002, 0.3728807429997687]",44,307.20040979700025,None,1,1,307.20040979700025,None,You did not lose $0.20!,-9.8,5,34,0.5,36.36363636363637,0.33052502431269204,[1],16.666666666666664,33,3,307.6772412070004,None,,,0.3728807429997687,0001,Scanner,0.31,2019_Aug_15_1401,MID,3.1.5,23.9329252772798,
SmallPun,1500,0,0,0,0,0,44,44,44,,,,,,309.17741799600026,None,1500,311.1853881470006,None,None,311.1853881470006,None,1.5,"[0.2672770990002391, 0.1001334010006758, 0.30220959999951447, 0.3476288520005255, 0.38886918400021386, 0.339089108000735, 0.38360768599977746, 0.34629565500017634, 0.33708518000003096, 0.3304176820001885, 0.3480253249999805, 0.3458193369997389, 0.39781014600066555, 0.31496547700044175, 0.3662859140004002, 0.3728807429997687]",45,312.7013327500008,None,None,0,312.7013327500008,None,You lost $0.20!,-10.0,5,35,0.5,35.55555555555556,0.33052502431269204,"[1, 0]",16.666666666666664,33,3,313.1767040630002,None,,,,0001,Scanner,0.31,2019_Aug_15_1401,MID,3.1.5,23.9329252772798,
LgReward,2000,0,0,0,0,0,45,45,45,,,,,,314.6773408450008,None,2000,316.6858345010005,None,None,316.6858345010005,None,1.5,"[0.2672770990002391, 0.1001334010006758, 0.30220959999951447, 0.3476288520005255, 0.38886918400021386, 0.339089108000735, 0.38360768599977746, 0.34629565500017634, 0.33708518000003096, 0.3304176820001885, 0.3480253249999805, 0.3458193369997389, 0.39781014600066555, 0.31496547700044175, 0.3662859140004002, 0.3728807429997687, 0.3450043029997687]",46,318.70825395200063,None,1,1,318.70825395200063,None,You won $5.00!,-5.0,1,36,0.5,36.95652173913043,0.33137674658840244,[],49.99999999999999,36,3,319.1794638630008,None,Adjusting RT...,,0.3450043029997687,0001,Scanner,0.31,2019_Aug_15_1401,MID,3.1.5,23.9329252772798,
LgPun,4000,0,0,0,0,0,46,46,46,,,,,,320.67789741600063,None,4000,322.6847855140004,None,1,322.6847855140004,None,1.5,"[0.2672770990002391, 0.1001334010006758, 0.30220959999951447, 0.3476288520005255, 0.38886918400021386, 0.339089108000735, 0.38360768599977746, 0.34629565500017634, 0.33708518000003096, 0.3304176820001885, 0.3480253249999805, 0.3458193369997389, 0.39781014600066555, 0.31496547700044175, 0.3662859140004002, 0.3728807429997687, 0.3450043029997687]",47,326.6950725660008,None,None,0,326.6950725660008,None,You lost $5.00!,-10.0,4,37,0.5,36.17021276595745,0.33137674658840244,[0],49.99999999999999,36,3,327.17798154200045,None,,3.882501068000238,,0001,Scanner,0.31,2019_Aug_15_1401,MID,3.1.5,23.9329252772798,
SmallPun,3000,0,0,0,0,0,47,47,47,,,,,,328.67797548700037,None,3000,330.68712742500065,None,None,330.68712742500065,None,1.5,"[0.2672770990002391, 0.1001334010006758, 0.30220959999951447, 0.3476288520005255, 0.38886918400021386, 0.339089108000735, 0.38360768599977746, 0.34629565500017634, 0.33708518000003096, 0.3304176820001885, 0.3480253249999805, 0.3458193369997389, 0.39781014600066555, 0.31496547700044175, 0.3662859140004002, 0.3728807429997687, 0.3450043029997687]",48,333.69591902499997,None,None,0,333.69591902499997,None,You lost $0.20!,-10.2,5,38,0.5,35.41666666666667,0.33137674658840244,"[0, 0]",49.99999999999999,36,3,334.18018104300063,None,,,,0001,Scanner,0.31,2019_Aug_15_1401,MID,3.1.5,23.9329252772798,
LgReward,2500,0,0,0,0,0,48,48,48,,,,,,335.6805365960008,None,2500,337.688489356,None,None,337.688489356,None,1.5,"[0.2672770990002391, 0.1001334010006758, 0.30220959999951447, 0.3476288520005255, 0.38886918400021386, 0.339089108000735, 0.38360768599977746, 0.34629565500017634, 0.33708518000003096, 0.3304176820001885, 0.3480253249999805, 0.3458193369997389, 0.39781014600066555, 0.31496547700044175, 0.3662859140004002, 0.3728807429997687, 0.3450043029997687, 0.35807970900077635]",49,340.2082049260007,None,1,1,340.2082049260007,None,You won $5.00!,-5.199999999999999,1,39,0.5,36.734693877551024,0.33286024450020096,[],49.99999999999999,39,3,340.68245986700003,None,Adjusting RT...,,0.35807970900077635,0001,Scanner,0.31,2019_Aug_15_1401,MID,3.1.5,23.9329252772798,
SmallPun,3500,0,0,0,0,0,49,49,49,,,,,,342.17873014900033,None,3500,344.18863658900045,None,None,344.18863658900045,None,1.5,"[0.2672770990002391, 0.1001334010006758, 0.30220959999951447, 0.3476288520005255, 0.38886918400021386, 0.339089108000735, 0.38360768599977746, 0.34629565500017634, 0.33708518000003096, 0.3304176820001885, 0.3480253249999805, 0.3458193369997389, 0.39781014600066555, 0.31496547700044175, 0.3662859140004002, 0.3728807429997687, 0.3450043029997687, 0.35807970900077635]",50,347.70586016200014,None,None,0,347.70586016200014,None,You lost $0.20!,-5.3999999999999995,5,40,0.5,36.0,0.33286024450020096,[0],49.99999999999999,39,3,348.179127675,None,,,,0001,Scanner,0.31,2019_Aug_15_1401,MID,3.1.5,23.9329252772798,
,,0,0,0,0,,,,,,,,,,,,,,,,,,,,,,,,,,,,,,,,,,,,,,,,,,,0001,Scanner,0.31,2019_Aug_15_1401,MID,3.1.5,23.9329252772798,
LgReward,1500,1,0,1,0,0,0,0,0,349.6885223320005,None,349.8458847660004,None,TimeVersion1.csv,351.8463229460003,None,1500,353.8577920120006,None,None,353.8577920120006,None,1.5,"[0.2672770990002391, 0.1001334010006758, 0.30220959999951447, 0.3476288520005255, 0.38886918400021386, 0.339089108000735, 0.38360768599977746, 0.34629565500017634, 0.33708518000003096, 0.3304176820001885, 0.3480253249999805, 0.3458193369997389, 0.39781014600066555, 0.31496547700044175, 0.3662859140004002, 0.3728807429997687, 0.3450043029997687, 0.35807970900077635, 0.3816881689999718]",51,355.3755721010002,None,1,1,355.3755721010002,None,You won $5.00!,-0.39999999999999947,1,41,0.5,37.254901960784316,0.3354301352633468,"[0, 1]",49.99999999999999,39,3,355.8480621230001,None,,,0.3816881689999718,0001,Scanner,0.31,2019_Aug_15_1401,MID,3.1.5,23.9329252772798,
Triangle,3500,1,0,1,0,0,1,1,1,,,,,,357.34615679700073,None,3500,359.35571880299995,None,None,359.35571880299995,None,1.5,"[0.2672770990002391, 0.1001334010006758, 0.30220959999951447, 0.3476288520005255, 0.38886918400021386, 0.339089108000735, 0.38360768599977746, 0.34629565500017634, 0.33708518000003096, 0.3304176820001885, 0.3480253249999805, 0.3458193369997389, 0.39781014600066555, 0.31496547700044175, 0.3662859140004002, 0.3728807429997687, 0.3450043029997687, 0.35807970900077635, 0.3816881689999718]",52,362.86404822200075,None,None,0,362.86404822200075,None,You did not win or lose anything!,-0.39999999999999947,3,41,0.5,36.53846153846153,0.3354301352633468,"[0, 1]",49.99999999999999,39,3,363.34839418699994,None,,,,0001,Scanner,0.31,2019_Aug_15_1401,MID,3.1.5,23.9329252772798,
LgPun,1500,1,0,1,0,0,2,2,2,,,,,,364.848319531,None,1500,366.85907834000045,None,None,366.85907834000045,None,1.5,"[0.2672770990002391, 0.1001334010006758, 0.30220959999951447, 0.3476288520005255, 0.38886918400021386, 0.339089108000735, 0.38360768599977746, 0.34629565500017634, 0.33708518000003096, 0.3304176820001885, 0.3480253249999805, 0.3458193369997389, 0.39781014600066555, 0.31496547700044175, 0.3662859140004002, 0.3728807429997687, 0.3450043029997687, 0.35807970900077635, 0.3816881689999718]",53,368.3746490550002,None,None,0,368.3746490550002,None,You lost $5.00!,-5.3999999999999995,4,42,0.5,35.84905660377358,0.3354301352633468,[],33.33333333333333,42,3,368.8467889620006,None,Adjusting RT...,,,0001,Scanner,0.31,2019_Aug_15_1401,MID,3.1.5,23.9329252772798,
SmallReward,3500,1,0,1,0,0,3,3,3,,,,,,370.3462704780004,None,3500,372.35982199499995,None,None,372.35982199499995,None,1.5,"[0.2672770990002391, 0.1001334010006758, 0.30220959999951447, 0.3476288520005255, 0.38886918400021386, 0.339089108000735, 0.38360768599977746, 0.34629565500017634, 0.33708518000003096, 0.3304176820001885, 0.3480253249999805, 0.3458193369997389, 0.39781014600066555, 0.31496547700044175, 0.3662859140004002, 0.3728807429997687, 0.3450043029997687, 0.35807970900077635, 0.3816881689999718]",54,375.8778932790001,None,None,0,375.8778932790001,None,You did not win $0.20!,-5.3999999999999995,2,43,0.5,35.18518518518518,0.3354301352633468,[0],33.33333333333333,42,3,376.34829449300014,None,,,,0001,Scanner,0.31,2019_Aug_15_1401,MID,3.1.5,23.9329252772798,
LgReward,1500,1,0,1,0,0,4,4,4,,,,,,377.849650483,None,1500,379.8524998920002,None,None,379.8524998920002,None,1.5,"[0.2672770990002391, 0.1001334010006758, 0.30220959999951447, 0.3476288520005255, 0.38886918400021386, 0.339089108000735, 0.38360768599977746, 0.34629565500017634, 0.33708518000003096, 0.3304176820001885, 0.3480253249999805, 0.3458193369997389, 0.39781014600066555, 0.31496547700044175, 0.3662859140004002, 0.3728807429997687, 0.3450043029997687, 0.35807970900077635, 0.3816881689999718]",55,381.37774504500067,None,None,0,381.37774504500067,None,You did not win $5.00!,-5.3999999999999995,1,44,0.5,34.54545454545455,0.3354301352633468,"[0, 0]",33.33333333333333,42,3,381.851017041,None,,,,0001,Scanner,0.31,2019_Aug_15_1401,MID,3.1.5,23.9329252772798,
LgPun,2500,1,0,1,0,0,5,5,5,,,,,,383.34762911600046,None,2500,385.3612351420006,None,None,385.3612351420006,None,1.5,"[0.2672770990002391, 0.1001334010006758, 0.30220959999951447, 0.3476288520005255, 0.38886918400021386, 0.339089108000735, 0.38360768599977746, 0.34629565500017634, 0.33708518000003096, 0.3304176820001885, 0.3480253249999805, 0.3458193369997389, 0.39781014600066555, 0.31496547700044175, 0.3662859140004002, 0.3728807429997687, 0.3450043029997687, 0.35807970900077635, 0.3816881689999718]",56,387.86496147100024,None,None,0,387.86496147100024,None,You lost $5.00!,-10.399999999999999,4,45,0.5,33.92857142857143,0.3354301352633468,[],16.666666666666664,45,3,388.3469687450006,None,Adjusting RT...,,,0001,Scanner,0.31,2019_Aug_15_1401,MID,3.1.5,23.9329252772798,
LgReward,3500,1,0,1,0,0,6,6,6,,,,,,389.8477379620008,None,3500,391.86232502800067,None,None,391.86232502800067,None,1.5,"[0.2672770990002391, 0.1001334010006758, 0.30220959999951447, 0.3476288520005255, 0.38886918400021386, 0.339089108000735, 0.38360768599977746, 0.34629565500017634, 0.33708518000003096, 0.3304176820001885, 0.3480253249999805, 0.3458193369997389, 0.39781014600066555, 0.31496547700044175, 0.3662859140004002, 0.3728807429997687, 0.3450043029997687, 0.35807970900077635, 0.3816881689999718]",57,395.3784139980007,None,None,0,395.3784139980007,None,You did not win $5.00!,-10.399999999999999,1,46,0.5,33.33333333333333,0.3354301352633468,[0],16.666666666666664,45,3,395.84972571900016,None,,,,0001,Scanner,0.31,2019_Aug_15_1401,MID,3.1.5,23.9329252772798,
LgPun,2000,1,0,1,0,0,7,7,7,,,,,,397.34987195100075,None,2000,399.36256712400063,None,None,399.36256712400063,None,1.5,"[0.2672770990002391, 0.1001334010006758, 0.30220959999951447, 0.3476288520005255, 0.38886918400021386, 0.339089108000735, 0.38360768599977746, 0.34629565500017634, 0.33708518000003096, 0.3304176820001885, 0.3480253249999805, 0.3458193369997389, 0.39781014600066555, 0.31496547700044175, 0.3662859140004002, 0.3728807429997687, 0.3450043029997687, 0.35807970900077635, 0.3816881689999718]",58,401.36725295199994,None,None,0,401.36725295199994,None,You lost $5.00!,-15.399999999999999,4,47,0.5,32.758620689655174,0.3354301352633468,"[0, 0]",16.666666666666664,45,3,401.8480065540007,None,,,,0001,Scanner,0.31,2019_Aug_15_1401,MID,3.1.5,23.9329252772798,
Triangle,1500,1,0,1,0,0,8,8,8,,,,,,403.34819544900074,None,1500,405.3528180990006,None,None,405.3528180990006,None,1.5,"[0.2672770990002391, 0.1001334010006758, 0.30220959999951447, 0.3476288520005255, 0.38886918400021386, 0.339089108000735, 0.38360768599977746, 0.34629565500017634, 0.33708518000003096, 0.3304176820001885, 0.3480253249999805, 0.3458193369997389, 0.39781014600066555, 0.31496547700044175, 0.3662859140004002, 0.3728807429997687, 0.3450043029997687, 0.35807970900077635, 0.3816881689999718]",59,406.8677598840004,None,None,0,406.8677598840004,None,You did not win or lose anything!,-15.399999999999999,3,47,0.5,32.20338983050847,0.3354301352633468,"[0, 0]",16.666666666666664,45,3,407.34843042600005,None,,,,0001,Scanner,0.31,2019_Aug_15_1401,MID,3.1.5,23.9329252772798,
SmallPun,4000,1,0,1,0,0,9,9,9,,,,,,408.8485971,None,4000,410.8644800510001,None,None,410.8644800510001,None,1.5,"[0.2672770990002391, 0.1001334010006758, 0.30220959999951447, 0.3476288520005255, 0.38886918400021386, 0.339089108000735, 0.38360768599977746, 0.34629565500017634, 0.33708518000003096, 0.3304176820001885, 0.3480253249999805, 0.3458193369997389, 0.39781014600066555, 0.31496547700044175, 0.3662859140004002, 0.3728807429997687, 0.3450043029997687, 0.35807970900077635, 0.3816881689999718]",60,414.86586910500046,None,None,0,414.86586910500046,None,You lost $0.20!,-15.599999999999998,5,48,0.5,31.666666666666664,0.3354301352633468,[],0.0,48,3,415.34987299300064,None,Adjusting RT...,,,0001,Scanner,0.31,2019_Aug_15_1401,MID,3.1.5,23.9329252772798,
