Condition,FixationDur,trials.thisRepN,trials.thisTrialN,trials.thisN,trials.thisIndex,preinstruc_text.started,preinstruc_text.stopped,instructFig.started,instructFig.stopped,PrepFixation.started,PrepFixation.stopped,TrialOrder,cueImage.started,cueImage.stopped,FixationDur,fixation.started,fixation.stopped,fixationResp.keys,fixationResp.started,fixationResp.stopped,feedbackDur,rt_list,Trial counter,Target.started,Target.stopped,probeResp.keys,probeResp.corr,probeResp.started,probeResp.stopped,msg,TrackEarnings,TrialType,NonNeutralTrialsNum,probeDur,percentacc_total,meanrt,UserAcc,Acc,AdjTrial,AdjTrialInc,feedbackMsg.started,feedbackMsg.stopped,AdjRTmsg,polygon.started,polygon.stopped,text.started,text.stopped,participant,prac_or_scan,run,date,expName,psychopyVersion,frameRate,
LgPun,1500,0,0,0,0,13.363929107006697,None,16.396768093007267,None,26.1978709180039,None,TimeVersion10.csv,28.197551332006697,None,1500,30.214420908007014,None,None,30.214420908007014,None,1.5,[],1,31.718622901003982,None,None,0,31.718622901003982,None,You lost $5.00!,-5,4,1,0.49999999999999994,0.0,nan,[0],0,0,3,32.19850821900036,None,,,,,,0005,Scanner,1,2019_Aug_20_1227,MID,3.1.5,60.11706692493159,
LgPun,2500,0,1,1,1,,,,,,,,33.68622507100372,None,2500,35.71645595100563,None,None,35.71645595100563,None,1.5,[],2,38.21665396100434,None,None,0,38.21665396100434,None,You lost $5.00!,-10,4,2,0.49999999999999994,0.0,nan,"[0, 0]",0,0,3,38.68293483900197,None,,,,,,0005,Scanner,1,2019_Aug_20_1227,MID,3.1.5,60.11706692493159,
Triangle,2000,0,2,2,2,,,,,,,,40.18935677900299,None,2000,42.217164420006156,None,None,42.217164420006156,None,1.5,[],3,44.21899044500606,None,None,0,44.21899044500606,None,You did not win or lose anything!,-10,3,2,0.49999999999999994,0.0,nan,"[0, 0]",0,0,3,44.69988567200198,None,,,,,,0005,Scanner,1,2019_Aug_20_1227,MID,3.1.5,60.11706692493159,
SmallPun,2500,0,3,3,3,,,,,,,,46.18891116200393,None,2500,48.218230424005014,None,None,48.218230424005014,None,1.5,[],4,50.71841736400529,None,None,0,50.71841736400529,None,You lost $0.20!,-10.2,5,3,0.5,0.0,nan,[],0.0,3,3,51.201088685003924,None,Adjusting RT...,,,,,0005,Scanner,1,2019_Aug_20_1227,MID,3.1.5,60.11706692493159,
LgReward,2000,0,4,4,4,,,,,,,,52.70619165100652,None,2000,54.718254037004954,None,None,54.718254037004954,None,1.5,[],5,56.735463350007194,None,None,0,56.735463350007194,None,You did not win $5.00!,-10.2,1,4,0.5,0.0,nan,[0],0.0,3,3,57.202133550003055,None,,,,,,0005,Scanner,1,2019_Aug_20_1227,MID,3.1.5,60.11706692493159,
Triangle,1500,0,5,5,5,,,,,,,,58.6906535570015,None,1500,60.71935391500301,None,None,60.71935391500301,None,1.5,[],6,62.21919777600124,None,None,0,62.21919777600124,None,You did not win or lose anything!,-10.2,3,4,0.5,0.0,nan,[0],0.0,3,3,62.702409960002115,None,,,,,,0005,Scanner,1,2019_Aug_20_1227,MID,3.1.5,60.11706692493159,
SmallPun,1500,0,6,6,6,,,,,,,,64.19060513400473,None,1500,66.21941466900171,None,None,66.21941466900171,None,1.5,[],7,67.72081359200092,None,None,0,67.72081359200092,None,You lost $0.20!,-10.399999999999999,5,5,0.5,0.0,nan,"[0, 0]",0.0,3,3,68.20307000400499,None,,,,,,0005,Scanner,1,2019_Aug_20_1227,MID,3.1.5,60.11706692493159,
Triangle,2500,0,7,7,7,,,,,,,,69.69000094300281,None,2500,71.72058844200365,None,None,71.72058844200365,None,1.5,[],8,74.22316062000027,None,None,0,74.22316062000027,None,You did not win or lose anything!,-10.399999999999999,3,5,0.5,0.0,nan,"[0, 0]",0.0,3,3,74.70323599500261,None,,,,,,0005,Scanner,1,2019_Aug_20_1227,MID,3.1.5,60.11706692493159,
Triangle,3000,0,8,8,8,,,,,,,,76.19278624100116,None,3000,78.22159584800102,None,None,78.22159584800102,None,1.5,[],9,81.22302839400072,None,None,0,81.22302839400072,None,You did not win or lose anything!,-10.399999999999999,3,5,0.5,0.0,nan,"[0, 0]",0.0,3,3,81.68870879500173,None,,,,,,0005,Scanner,1,2019_Aug_20_1227,MID,3.1.5,60.11706692493159,
SmallReward,3500,0,9,9,9,,,,,,,,83.20917185700091,None,3500,85.22232693200203,None,None,85.22232693200203,None,1.5,[],10,88.73980692900659,None,None,0,88.73980692900659,None,You did not win $0.20!,-10.399999999999999,2,6,0.5,0.0,nan,[],0.0,6,3,89.22295132000727,None,Adjusting RT...,,,,,0005,Scanner,1,2019_Aug_20_1227,MID,3.1.5,60.11706692493159,
SmallReward,2500,0,10,10,10,,,,,,,,90.70632795200072,None,2500,92.72342526400462,None,None,92.72342526400462,None,1.5,[],11,95.24045602100523,None,None,0,95.24045602100523,None,You did not win $0.20!,-10.399999999999999,2,7,0.5,0.0,nan,[0],0.0,6,3,95.69046028000594,None,,,,,,0005,Scanner,1,2019_Aug_20_1227,MID,3.1.5,60.11706692493159,
LgReward,1500,0,11,11,11,,,,,,,,97.20785189900198,None,1500,99.22375577800267,None,None,99.22375577800267,None,1.5,[],12,100.74102138200396,None,None,0,100.74102138200396,None,You did not win $5.00!,-10.399999999999999,1,8,0.5,0.0,nan,"[0, 0]",0.0,6,3,101.20787921600277,None,,,,,,0005,Scanner,1,2019_Aug_20_1227,MID,3.1.5,60.11706692493159,
Triangle,1500,0,12,12,12,,,,,,,,102.69707675900281,None,1500,104.72492257400154,None,None,104.72492257400154,None,1.5,[],13,106.22686983600579,None,None,0,106.22686983600579,None,You did not win or lose anything!,-10.399999999999999,3,8,0.5,0.0,nan,"[0, 0]",0.0,6,3,106.7078547140045,None,,,,,,0005,Scanner,1,2019_Aug_20_1227,MID,3.1.5,60.11706692493159,
SmallReward,1500,0,13,13,13,,,,,,,,108.20909143100289,None,1500,110.22525698100071,None,None,110.22525698100071,None,1.5,[],14,111.74262412900134,None,None,0,111.74262412900134,None,You did not win $0.20!,-10.399999999999999,2,9,0.5,0.0,nan,[],0.0,9,3,112.20936834300664,None,Adjusting RT...,,,,,0005,Scanner,1,2019_Aug_20_1227,MID,3.1.5,60.11706692493159,
SmallReward,4000,0,14,14,14,,,,,,,,113.709892374005,None,4000,115.72606477900263,None,None,115.72606477900263,None,1.5,[],15,119.74355382800422,None,None,0,119.74355382800422,None,You did not win $0.20!,-10.399999999999999,2,10,0.5,0.0,nan,[0],0.0,9,3,120.1936158430035,None,,,,,,0005,Scanner,1,2019_Aug_20_1227,MID,3.1.5,60.11706692493159,
LgReward,1500,0,15,15,15,,,,,,,,121.72593865400268,None,1500,123.72745073600527,None,None,123.72745073600527,None,1.5,[],16,125.2474495320057,None,None,0,125.2474495320057,None,You did not win $5.00!,-10.399999999999999,1,11,0.5,0.0,nan,"[0, 0]",0.0,9,3,125.71110434900038,None,,,,,,0005,Scanner,1,2019_Aug_20_1227,MID,3.1.5,60.11706692493159,
LgReward,3000,0,16,16,16,,,,,,,,127.21136395600479,None,3000,129.22804012300185,None,None,129.22804012300185,None,1.5,[],17,132.24538865900104,None,None,0,132.24538865900104,None,You did not win $5.00!,-10.399999999999999,1,12,0.5,0.0,nan,[],0.0,12,3,132.69441932300106,None,Adjusting RT...,,,,,0005,Scanner,1,2019_Aug_20_1227,MID,3.1.5,60.11706692493159,
SmallReward,1500,0,17,17,17,,,,,,,,134.21278814400284,None,1500,136.2285194980068,None,None,136.2285194980068,None,1.5,[],18,137.74595253400184,None,None,0,137.74595253400184,None,You did not win $0.20!,-10.399999999999999,2,13,0.5,0.0,nan,[0],0.0,12,3,138.21238089800318,None,,,,,,0005,Scanner,1,2019_Aug_20_1227,MID,3.1.5,60.11706692493159,
LgPun,1500,0,18,18,18,,,,,,,,139.7006300810026,None,1500,141.72956698800408,None,None,141.72956698800408,None,1.5,[],19,143.2301420990043,None,None,0,143.2301420990043,None,You lost $5.00!,-15.399999999999999,4,14,0.5,0.0,nan,"[0, 0]",0.0,12,3,143.7132188720061,None,,,,,,0005,Scanner,1,2019_Aug_20_1227,MID,3.1.5,60.11706692493159,
SmallReward,2000,0,19,19,19,,,,,,,,145.21466083600535,None,2000,147.23033416100225,None,None,147.23033416100225,None,1.5,[],20,149.24747145100264,None,None,0,149.24747145100264,None,You did not win $0.20!,-15.399999999999999,2,15,0.5,0.0,nan,[],0.0,15,3,149.71388108800602,None,Adjusting RT...,,,,,0005,Scanner,1,2019_Aug_20_1227,MID,3.1.5,60.11706692493159,
SmallPun,3000,0,20,20,20,,,,,,,,151.2001560100034,None,3000,153.2310786320013,None,None,153.2310786320013,None,1.5,[],21,156.23260760300036,None,None,0,156.23260760300036,None,You lost $0.20!,-15.599999999999998,5,16,0.5,0.0,nan,[0],0.0,15,3,156.7148309470067,None,,,,,,0005,Scanner,1,2019_Aug_20_1227,MID,3.1.5,60.11706692493159,
LgReward,3500,0,21,21,21,,,,,,,,158.21550139500323,None,3500,160.23240305100626,None,None,160.23240305100626,None,1.5,[],22,163.75050114300393,None,None,0,163.75050114300393,None,You did not win $5.00!,-15.599999999999998,1,17,0.5,0.0,nan,"[0, 0]",0.0,15,3,164.21583962200384,None,,,,,,0005,Scanner,1,2019_Aug_20_1227,MID,3.1.5,60.11706692493159,
LgPun,4000,0,22,22,22,,,,,,,,165.70431092200306,None,4000,167.73258923200046,None,None,167.73258923200046,None,1.5,[],23,171.73327274400071,None,None,0,171.73327274400071,None,You lost $5.00!,-20.599999999999998,4,18,0.5,0.0,nan,[],0.0,18,3,172.2166365890007,None,Adjusting RT...,,,,,0005,Scanner,1,2019_Aug_20_1227,MID,3.1.5,60.11706692493159,
Triangle,2000,0,23,23,23,,,,,,,,173.70552744900488,None,2000,175.73415507400205,None,None,175.73415507400205,None,1.5,[],24,177.735359530001,None,None,0,177.735359530001,None,You did not win or lose anything!,-20.599999999999998,3,18,0.5,0.0,nan,[],0.0,18,3,178.21766787800152,None,,,,,,0005,Scanner,1,2019_Aug_20_1227,MID,3.1.5,60.11706692493159,
LgReward,4000,0,24,24,24,,,,,,,,179.72019670100417,None,4000,181.73386592600582,None,None,181.73386592600582,None,1.5,[],25,185.75227090400585,None,None,0,185.75227090400585,None,You did not win $5.00!,-20.599999999999998,1,19,0.5,0.0,nan,[0],0.0,18,3,186.2188483400023,None,,,,,,0005,Scanner,1,2019_Aug_20_1227,MID,3.1.5,60.11706692493159,
LgPun,3000,0,25,25,25,,,,,,,,187.70740402100637,None,3000,189.73606136200397,None,None,189.73606136200397,None,1.5,[],26,192.7364401550003,None,None,0,192.7364401550003,None,You lost $5.00!,-25.599999999999998,4,20,0.5,0.0,nan,"[0, 0]",0.0,18,3,193.21952103000513,None,,,,,,0005,Scanner,1,2019_Aug_20_1227,MID,3.1.5,60.11706692493159,
Triangle,1500,0,26,26,26,,,,,,,,194.70867899400037,None,1500,196.73702116700588,None,None,196.73702116700588,None,1.5,[],27,198.23791473400343,None,None,0,198.23791473400343,None,You did not win or lose anything!,-25.599999999999998,3,20,0.5,0.0,nan,"[0, 0]",0.0,18,3,198.72058323400415,None,,,,,,0005,Scanner,1,2019_Aug_20_1227,MID,3.1.5,60.11706692493159,
LgPun,1500,0,27,27,27,,,,,,,,200.20910100300534,None,1500,202.23714651600312,None,None,202.23714651600312,None,1.5,[],28,203.7384952930006,None,None,0,203.7384952930006,None,You lost $5.00!,-30.599999999999998,4,21,0.5,0.0,nan,[],0.0,21,3,204.22092963100295,None,Adjusting RT...,,,,,0005,Scanner,1,2019_Aug_20_1227,MID,3.1.5,60.11706692493159,
SmallReward,2000,0,28,28,28,,,,,,,,205.7210854740042,None,2000,207.73841701300262,None,None,207.73841701300262,None,1.5,[],29,209.75540537700726,None,None,0,209.75540537700726,None,You did not win $0.20!,-30.599999999999998,2,22,0.5,0.0,nan,[0],0.0,21,3,210.2215463350003,None,,,,,,0005,Scanner,1,2019_Aug_20_1227,MID,3.1.5,60.11706692493159,
LgPun,1500,0,29,29,29,,,,,,,,211.71043794400612,None,1500,213.7395058730035,None,None,213.7395058730035,None,1.5,[],30,215.24002390100213,None,None,0,215.24002390100213,None,You lost $5.00!,-35.599999999999994,4,23,0.5,0.0,nan,"[0, 0]",0.0,21,3,215.7223214580008,None,,,,,,0005,Scanner,1,2019_Aug_20_1227,MID,3.1.5,60.11706692493159,
SmallReward,1500,0,30,30,30,,,,,,,,217.22793189700315,None,1500,219.2399538630052,None,None,219.2399538630052,None,1.5,[],31,220.7592098410023,None,None,0,220.7592098410023,None,You did not win $0.20!,-35.599999999999994,2,24,0.5,0.0,nan,[],0.0,24,3,221.22297489900666,None,Adjusting RT...,,,,,0005,Scanner,1,2019_Aug_20_1227,MID,3.1.5,60.11706692493159,
SmallPun,3500,0,31,31,31,,,,,,,,222.70956567000394,None,3500,224.74031678400206,None,None,224.74031678400206,None,1.5,[],32,228.2410733400029,None,None,0,228.2410733400029,None,You lost $0.20!,-35.8,5,25,0.5,0.0,nan,[0],0.0,24,3,228.7239970600058,None,,,,,,0005,Scanner,1,2019_Aug_20_1227,MID,3.1.5,60.11706692493159,
Triangle,4000,0,32,32,32,,,,,,,,230.21261733200663,None,4000,232.24199224500626,None,None,232.24199224500626,None,1.5,[],33,236.24237689700385,None,None,0,236.24237689700385,None,You did not win or lose anything!,-35.8,3,25,0.5,0.0,nan,[0],0.0,24,3,236.7246088890024,None,,,,,,0005,Scanner,1,2019_Aug_20_1227,MID,3.1.5,60.11706692493159,
SmallPun,2000,0,33,33,33,,,,,,,,238.2136675840011,None,2000,240.24300900500384,None,None,240.24300900500384,None,1.5,[],34,242.24299905000225,None,None,0,242.24299905000225,None,You lost $0.20!,-36.0,5,26,0.5,0.0,nan,"[0, 0]",0.0,24,3,242.72592001500016,None,,,,,,0005,Scanner,1,2019_Aug_20_1227,MID,3.1.5,60.11706692493159,
LgReward,1500,0,34,34,34,,,,,,,,244.2268942100054,None,1500,246.24352432300657,None,None,246.24352432300657,None,1.5,[],35,247.7598397000038,None,None,0,247.7598397000038,None,You did not win $5.00!,-36.0,1,27,0.5,0.0,nan,[],0.0,27,3,248.22680619900348,None,Adjusting RT...,,,,,0005,Scanner,1,2019_Aug_20_1227,MID,3.1.5,60.11706692493159,
SmallPun,1500,0,35,35,35,,,,,,,,249.7153675100053,None,1500,251.7437558380043,None,None,251.7437558380043,None,1.5,[],36,253.2444408260053,None,None,0,253.2444408260053,None,You lost $0.20!,-36.2,5,28,0.5,0.0,nan,[0],0.0,27,3,253.72711907800112,None,,,,,,0005,Scanner,1,2019_Aug_20_1227,MID,3.1.5,60.11706692493159,
LgReward,2000,0,36,36,36,,,,,,,,255.2300111040022,None,2000,257.24458561800566,None,None,257.24458561800566,None,1.5,[],37,259.26141355300206,None,None,0,259.26141355300206,None,You did not win $5.00!,-36.2,1,29,0.5,0.0,nan,"[0, 0]",0.0,27,3,259.72752206200676,None,,,,,,0005,Scanner,1,2019_Aug_20_1227,MID,3.1.5,60.11706692493159,
LgReward,1500,0,37,37,37,,,,,,,,261.2297540530053,None,1500,263.2456280770057,None,None,263.2456280770057,None,1.5,[],38,264.7626068180034,None,None,0,264.7626068180034,None,You did not win $5.00!,-36.2,1,30,0.5,0.0,nan,[],0.0,30,3,265.2123958690063,None,Adjusting RT...,,,,,0005,Scanner,1,2019_Aug_20_1227,MID,3.1.5,60.11706692493159,
SmallPun,4000,0,38,38,38,,,,,,,,266.71759079100593,None,4000,268.74641145800706,None,None,268.74641145800706,None,1.5,[],39,272.7472274920001,None,None,0,272.7472274920001,None,You lost $0.20!,-36.400000000000006,5,31,0.5,0.0,nan,[0],0.0,30,3,273.23031780500605,None,,,,,,0005,Scanner,1,2019_Aug_20_1227,MID,3.1.5,60.11706692493159,
LgPun,2000,0,39,39,39,,,,,,,,274.7185502230059,None,2000,276.74721027400665,None,None,276.74721027400665,None,1.5,[],40,278.7491132830037,None,None,0,278.7491132830037,None,You lost $5.00!,-41.400000000000006,4,32,0.5,0.0,nan,"[0, 0]",0.0,30,3,279.230889972001,None,,,,,,0005,Scanner,1,2019_Aug_20_1227,MID,3.1.5,60.11706692493159,
Triangle,3500,0,40,40,40,,,,,,,,280.71954620300676,None,3500,282.74820591200114,None,None,282.74820591200114,None,1.5,[],41,286.249412353005,None,None,0,286.249412353005,None,You did not win or lose anything!,-41.400000000000006,3,32,0.5,0.0,nan,"[0, 0]",0.0,30,3,286.732326491001,None,,,,,,0005,Scanner,1,2019_Aug_20_1227,MID,3.1.5,60.11706692493159,
SmallReward,1500,0,41,41,41,,,,,,,,288.23677826100175,None,1500,290.249150913005,None,None,290.249150913005,None,1.5,[],42,291.76560829200025,None,None,0,291.76560829200025,None,You did not win $0.20!,-41.400000000000006,2,33,0.5,0.0,nan,[],0.0,33,3,292.23216009500175,None,Adjusting RT...,,,,,0005,Scanner,1,2019_Aug_20_1227,MID,3.1.5,60.11706692493159,
SmallPun,2000,0,42,42,42,,,,,,,,293.72114497500297,None,2000,295.7492639530028,None,None,295.7492639530028,None,1.5,[],43,297.750110468005,None,None,0,297.750110468005,None,You lost $0.20!,-41.60000000000001,5,34,0.5,0.0,nan,[0],0.0,33,3,298.23325762200693,None,,,,,,0005,Scanner,1,2019_Aug_20_1227,MID,3.1.5,60.11706692493159,
SmallReward,3000,0,43,43,43,,,,,,,,299.7361727170064,None,3000,301.7496983000019,None,None,301.7496983000019,None,1.5,[],44,304.7710238170039,None,None,0,304.7710238170039,None,You did not win $0.20!,-41.60000000000001,2,35,0.5,0.0,nan,"[0, 0]",0.0,33,3,305.23355550700217,None,,,,,,0005,Scanner,1,2019_Aug_20_1227,MID,3.1.5,60.11706692493159,
SmallPun,1500,0,44,44,44,,,,,,,,306.7193873970027,None,1500,308.75140668400127,None,None,308.75140668400127,None,1.5,[],45,310.25255540000217,None,None,0,310.25255540000217,None,You lost $0.20!,-41.80000000000001,5,36,0.5,0.0,nan,[],0.0,36,3,310.7351438810001,None,Adjusting RT...,,,,,0005,Scanner,1,2019_Aug_20_1227,MID,3.1.5,60.11706692493159,
LgPun,3500,0,45,45,45,,,,,,,,312.2236045650061,None,3500,314.252139672004,None,None,314.252139672004,None,1.5,[],46,317.7525402260071,None,None,0,317.7525402260071,None,You lost $5.00!,-46.80000000000001,4,37,0.5,0.0,nan,[0],0.0,36,3,318.23565559200506,None,,,,,,0005,Scanner,1,2019_Aug_20_1227,MID,3.1.5,60.11706692493159,
Triangle,1500,0,46,46,46,,,,,,,,319.7246828250063,None,1500,321.7529914400002,None,None,321.7529914400002,None,1.5,[],47,323.2543276050055,None,None,0,323.2543276050055,None,You did not win or lose anything!,-46.80000000000001,3,37,0.5,0.0,nan,[0],0.0,36,3,323.7365867230037,None,,,,,,0005,Scanner,1,2019_Aug_20_1227,MID,3.1.5,60.11706692493159,
LgReward,2500,0,47,47,47,,,,,,,,325.2378678390014,None,2500,327.2541235030003,None,None,327.2541235030003,None,1.5,[],48,329.77055730600114,None,None,0,329.77055730600114,None,You did not win $5.00!,-46.80000000000001,1,38,0.5,0.0,nan,"[0, 0]",0.0,36,3,330.2373927640001,None,,,,,,0005,Scanner,1,2019_Aug_20_1227,MID,3.1.5,60.11706692493159,
LgPun,2000,0,48,48,48,,,,,,,,331.72608738800045,None,2000,333.756090106006,None,None,333.756090106006,None,1.5,[],49,335.755822981002,None,None,0,335.755822981002,None,You lost $5.00!,-51.80000000000001,4,39,0.5,0.0,nan,[],0.0,39,3,336.2384068040046,None,Adjusting RT...,,,,,0005,Scanner,1,2019_Aug_20_1227,MID,3.1.5,60.11706692493159,
SmallPun,1500,0,49,49,49,,,,,,,,337.7270701210073,None,1500,339.75579939100135,None,None,339.75579939100135,None,1.5,[],50,341.2569648630015,None,None,0,341.2569648630015,None,You lost $0.20!,-52.000000000000014,5,40,0.5,0.0,nan,[0],0.0,39,3,341.7397637450049,None,,,,,,0005,Scanner,1,2019_Aug_20_1227,MID,3.1.5,60.11706692493159,
,,,,,,,,,,,,,,,,,,,,,,,,,,,,,,,,,,,,,,,,,,,,,,,,0005,Scanner,1,2019_Aug_20_1227,MID,3.1.5,60.11706692493159,
,,,,,,,,,,,,,,,,,,,,,,,,,,,,,,,,,,,,,,,,,,,,343.2223291150003,None,348.24023009500524,None,,,,,,,,
