Condition,FixationDur,trials.thisRepN,trials.thisTrialN,trials.thisN,trials.thisIndex,preinstruc_text.started,preinstruc_text.stopped,instructFig.started,instructFig.stopped,PrepFixation.started,PrepFixation.stopped,TrialOrder,cueImage.started,cueImage.stopped,FixationDur,fixation.started,fixation.stopped,fixationResp.keys,fixationResp.started,fixationResp.stopped,feedbackDur,rt_list,Trial counter,Target.started,Target.stopped,probeResp.keys,probeResp.corr,probeResp.started,probeResp.stopped,msg,TrackEarnings,TrialType,NonNeutralTrialsNum,probeDur,percentacc_total,meanrt,UserAcc,Acc,AdjTrial,AdjTrialInc,feedbackMsg.started,feedbackMsg.stopped,AdjRTmsg,probeResp.rt,polygon.started,polygon.stopped,text.started,text.stopped,participant,prac_or_scan,run,date,expName,psychopyVersion,frameRate,
SmallPun,1500,0,0,0,0,32.00694288899831,None,35.04083278400503,None,48.6588147010043,None,TimeVersion11.csv,50.655463064002106,None,1500,52.67959971899836,None,None,52.67959971899836,None,1.6300000000000001,[],1,54.17864323699905,None,None,0,54.17864323699905,None,You lost $0.20!,-0.2,5,1,0.36999999999999994,0.0,nan,[0],0,0,3,54.52998064900021,None,,,,,,,0006,Scanner,1,2019_Aug_20_1456,MID,3.1.5,24.005745688472174,
LgPun,1500,0,1,1,1,,,,,,,,56.15513209900382,None,1500,58.17855148699891,None,None,58.17855148699891,None,1.6300000000000001,[],2,59.67862613100442,None,None,0,59.67862613100442,None,You lost $5.00!,-5.2,4,2,0.36999999999999994,0.0,nan,"[0, 0]",0,0,3,60.03005597700394,None,,,,,,,0006,Scanner,1,2019_Aug_20_1456,MID,3.1.5,24.005745688472174,
Triangle,3500,0,2,2,2,,,,,,,,61.655820452004264,None,3500,63.66361004400096,None,None,63.66361004400096,None,1.6300000000000001,[],3,67.17973872300354,None,None,0,67.17973872300354,None,You did not win or lose anything!,-5.2,3,2,0.36999999999999994,0.0,nan,"[0, 0]",0,0,3,67.53128450400254,None,,,,,,,0006,Scanner,1,2019_Aug_20_1456,MID,3.1.5,24.005745688472174,
Triangle,1500,0,3,3,3,,,,,,,,69.15624313100125,None,1500,71.16435572299815,None,None,71.16435572299815,None,1.6300000000000001,[],4,72.68093480300013,None,None,0,72.68093480300013,None,You did not win or lose anything!,-5.2,3,2,0.36999999999999994,0.0,nan,"[0, 0]",0,0,3,73.03113995699823,None,,,,,,,0006,Scanner,1,2019_Aug_20_1456,MID,3.1.5,24.005745688472174,
LgReward,3500,0,4,4,4,,,,,,,,74.65645542400307,None,3500,76.66592269900138,None,None,76.66592269900138,None,1.6300000000000001,[],5,80.19770089200028,None,None,0,80.19770089200028,None,You did not win $5.00!,-5.2,1,3,0.43999999999999995,0.0,nan,[],0.0,3,3,80.53443734300527,None,Adjusting RT...,,,,,,0006,Scanner,1,2019_Aug_20_1456,MID,3.1.5,24.005745688472174,
SmallReward,3000,0,5,5,5,,,,,,,,82.15691760900518,None,3000,84.16414004300168,None,None,84.16414004300168,None,1.56,[],6,87.19951097300509,None,None,0,87.19951097300509,None,You did not win $0.20!,-5.2,2,4,0.43999999999999995,0.0,nan,[0],0.0,3,3,87.57564607300446,None,,,,,,,0006,Scanner,1,2019_Aug_20_1456,MID,3.1.5,24.005745688472174,
SmallPun,1500,0,6,6,6,,,,,,,,89.11563916299929,None,1500,91.1332351250021,None,None,91.1332351250021,None,1.56,[],7,92.6338511540016,None,None,0,92.6338511540016,None,You lost $0.20!,-5.4,5,5,0.43999999999999995,0.0,nan,"[0, 0]",0.0,3,3,93.0317991510019,None,,,,,,,0006,Scanner,1,2019_Aug_20_1456,MID,3.1.5,24.005745688472174,
SmallReward,1500,0,7,7,7,,,,,,,,94.57387187999848,None,1500,96.58482633499807,None,None,96.58482633499807,None,1.56,[],8,98.10781396300445,None,None,0,98.10781396300445,None,You did not win $0.20!,-5.4,2,6,0.5,0.0,nan,[],0.0,6,3,98.4905693949986,None,Adjusting RT...,,,,,,0006,Scanner,1,2019_Aug_20_1456,MID,3.1.5,24.005745688472174,
LgReward,3000,0,8,8,8,,,,,,,,100.0326989669993,None,3000,102.04960132700216,None,None,102.04960132700216,None,1.5,[0.2715647280056146],9,105.06862347800052,None,1,1,105.06862347800052,None,You won $5.00!,-0.40000000000000036,1,7,0.5,11.11111111111111,0.2715647280056146,[1],0.0,6,3,105.536566322,None,,0.2715647280056146,,,,,0006,Scanner,1,2019_Aug_20_1456,MID,3.1.5,24.005745688472174,
LgPun,1500,0,9,9,9,,,,,,,,107.03227645999868,None,1500,109.05189591400267,None,None,109.05189591400267,None,1.5,"[0.2715647280056146, 0.37146648099587765]",10,110.55272643900389,None,1,1,110.55272643900389,None,You did not lose $5.00!,-0.40000000000000036,4,8,0.5,20.0,0.3215156045007461,"[1, 1]",0.0,6,3,111.0325870730012,None,,0.37146648099587765,,,,,0006,Scanner,1,2019_Aug_20_1456,MID,3.1.5,24.005745688472174,
SmallReward,2000,0,10,10,10,,,,,,,,112.53334398999868,None,2000,114.55313853899861,None,None,114.55313853899861,None,1.5,"[0.2715647280056146, 0.37146648099587765, 0.3061468789965147]",11,116.57004376700206,None,1,1,116.57004376700206,None,You won $0.20!,-0.20000000000000034,2,9,0.5,27.27272727272727,0.31639269599933567,[],50.0,9,3,117.03230605999852,None,Adjusting RT...,0.3061468789965147,,,,,0006,Scanner,1,2019_Aug_20_1456,MID,3.1.5,24.005745688472174,
LgReward,2000,0,11,11,11,,,,,,,,118.53337796800042,None,2000,120.55364933500096,None,None,120.55364933500096,None,1.5,"[0.2715647280056146, 0.37146648099587765, 0.3061468789965147]",12,122.57026767400384,None,None,0,122.57026767400384,None,You did not win $5.00!,-0.20000000000000034,1,10,0.5,25.0,0.31639269599933567,[0],50.0,9,3,123.03337498500332,None,,,,,,,0006,Scanner,1,2019_Aug_20_1456,MID,3.1.5,24.005745688472174,
Triangle,2500,0,12,12,12,,,,,,,,124.53390572900389,None,2500,126.5544485499995,None,None,126.5544485499995,None,1.5,"[0.2715647280056146, 0.37146648099587765, 0.3061468789965147, 0.35233363199949963]",13,129.05485111300368,None,1,1,129.05485111300368,None,You did not win or lose anything!,-0.20000000000000034,3,10,0.5,30.76923076923077,0.32537792999937665,[0],50.0,9,3,129.53366788999847,None,,0.35233363199949963,,,,,0006,Scanner,1,2019_Aug_20_1456,MID,3.1.5,24.005745688472174,
LgReward,1500,0,13,13,13,,,,,,,,131.03389333999803,None,1500,133.04106496999884,None,None,133.04106496999884,None,1.5,"[0.2715647280056146, 0.37146648099587765, 0.3061468789965147, 0.35233363199949963]",14,134.57179546599946,None,None,0,134.57179546599946,None,You did not win $5.00!,-0.20000000000000034,1,11,0.5,28.57142857142857,0.32537792999937665,"[0, 0]",50.0,9,3,135.03386052099813,None,,,,,,,0006,Scanner,1,2019_Aug_20_1456,MID,3.1.5,24.005745688472174,
LgPun,2500,0,14,14,14,,,,,,,,136.53361000199948,None,2500,138.53778119000344,None,None,138.53778119000344,None,1.5,"[0.2715647280056146, 0.37146648099587765, 0.3061468789965147, 0.35233363199949963, 0.2666429620003328]",15,141.0564073409987,None,1,1,141.0564073409987,None,You did not lose $5.00!,-0.20000000000000034,4,12,0.48,33.33333333333333,0.31363093639956785,[],66.66666666666666,12,3,141.53396413600422,None,Adjusting RT...,0.2666429620003328,,,,,0006,Scanner,1,2019_Aug_20_1456,MID,3.1.5,24.005745688472174,
SmallReward,1500,0,15,15,15,,,,,,,,143.034530818004,None,1500,145.04204497400497,None,None,145.04204497400497,None,1.52,"[0.2715647280056146, 0.37146648099587765, 0.3061468789965147, 0.35233363199949963, 0.2666429620003328]",16,146.57214924000436,None,None,0,146.57214924000436,None,You did not win $0.20!,-0.20000000000000034,2,13,0.48,31.25,0.31363093639956785,[0],66.66666666666666,12,3,146.99319735600147,None,,,,,,,0006,Scanner,1,2019_Aug_20_1456,MID,3.1.5,24.005745688472174,
LgReward,1500,0,16,16,16,,,,,,,,148.4926499180001,None,1500,150.50687492600264,None,None,150.50687492600264,None,1.52,"[0.2715647280056146, 0.37146648099587765, 0.3061468789965147, 0.35233363199949963, 0.2666429620003328, 0.33248993800225435]",17,152.0227013160038,None,1,1,152.0227013160038,None,You won $5.00!,4.8,1,14,0.48,35.294117647058826,0.31677410333334893,"[0, 1]",66.66666666666666,12,3,152.45115243700275,None,,0.33248993800225435,,,,,0006,Scanner,1,2019_Aug_20_1456,MID,3.1.5,24.005745688472174,
SmallPun,3500,0,17,17,17,,,,,,,,153.95199204300297,None,3500,155.97456292800052,None,None,155.97456292800052,None,1.52,"[0.2715647280056146, 0.37146648099587765, 0.3061468789965147, 0.35233363199949963, 0.2666429620003328, 0.33248993800225435, 0.27730592800071463]",18,159.47487604599883,None,1,1,159.47487604599883,None,You did not lose $0.20!,4.8,5,15,0.5,38.88888888888889,0.31113579257154406,[],49.99999999999999,15,3,159.90961663000053,None,Adjusting RT...,0.27730592800071463,,,,,0006,Scanner,1,2019_Aug_20_1456,MID,3.1.5,24.005745688472174,
LgPun,1500,0,18,18,18,,,,,,,,161.4102503030008,None,1500,163.4263417129987,None,None,163.4263417129987,None,1.5,"[0.2715647280056146, 0.37146648099587765, 0.3061468789965147, 0.35233363199949963, 0.2666429620003328, 0.33248993800225435, 0.27730592800071463, 0.3525808339982177]",19,164.92847241300478,None,1,1,164.92847241300478,None,You did not lose $5.00!,4.8,4,16,0.5,42.10526315789473,0.31631642274987826,[1],49.99999999999999,15,3,165.4106046490051,None,,0.3525808339982177,,,,,0006,Scanner,1,2019_Aug_20_1456,MID,3.1.5,24.005745688472174,
LgPun,3500,0,19,19,19,,,,,,,,166.91033539400087,None,3500,168.92640794099862,None,None,168.92640794099862,None,1.5,"[0.2715647280056146, 0.37146648099587765, 0.3061468789965147, 0.35233363199949963, 0.2666429620003328, 0.33248993800225435, 0.27730592800071463, 0.3525808339982177, 0.284189673999208]",20,172.42799734700384,None,1,1,172.42799734700384,None,You did not lose $5.00!,4.8,4,17,0.5,45.0,0.31274678399980377,"[1, 1]",49.99999999999999,15,3,172.91280971700326,None,,0.284189673999208,,,,,0006,Scanner,1,2019_Aug_20_1456,MID,3.1.5,24.005745688472174,
SmallReward,2500,0,20,20,20,,,,,,,,174.41259475900006,None,2500,176.4276114960012,None,None,176.4276114960012,None,1.5,"[0.2715647280056146, 0.37146648099587765, 0.3061468789965147, 0.35233363199949963, 0.2666429620003328, 0.33248993800225435, 0.27730592800071463, 0.3525808339982177, 0.284189673999208, 0.3531536509981379]",21,178.94403882500046,None,1,1,178.94403882500046,None,You won $0.20!,5.0,2,18,0.47,47.61904761904761,0.3167874706996372,[],83.33333333333333,18,3,179.4130408630008,None,Adjusting RT...,0.3531536509981379,,,,,0006,Scanner,1,2019_Aug_20_1456,MID,3.1.5,24.005745688472174,
LgPun,2000,0,21,21,21,,,,,,,,180.9129174530026,None,2000,182.92844932200387,None,None,182.92844932200387,None,1.53,"[0.2715647280056146, 0.37146648099587765, 0.3061468789965147, 0.35233363199949963, 0.2666429620003328, 0.33248993800225435, 0.27730592800071463, 0.3525808339982177, 0.284189673999208, 0.3531536509981379, 0.2991101749939844]",22,184.93003507800313,None,1,1,184.93003507800313,None,You did not lose $5.00!,5.0,4,19,0.47,50.0,0.31518044381730514,[1],83.33333333333333,18,3,185.36972041599802,None,,0.2991101749939844,,,,,0006,Scanner,1,2019_Aug_20_1456,MID,3.1.5,24.005745688472174,
Triangle,2000,0,22,22,22,,,,,,,,186.9114949040013,None,2000,188.92937256200094,None,None,188.92937256200094,None,1.53,"[0.2715647280056146, 0.37146648099587765, 0.3061468789965147, 0.35233363199949963, 0.2666429620003328, 0.33248993800225435, 0.27730592800071463, 0.3525808339982177, 0.284189673999208, 0.3531536509981379, 0.2991101749939844, 0.3342433469952084]",23,190.92985604300338,None,1,1,190.92985604300338,None,You did not win or lose anything!,5.0,3,19,0.47,52.17391304347826,0.3167690190821304,[1],83.33333333333333,18,3,191.37010746799933,None,,0.3342433469952084,,,,,0006,Scanner,1,2019_Aug_20_1456,MID,3.1.5,24.005745688472174,
LgPun,4000,0,23,23,23,,,,,,,,192.911865013004,None,4000,194.93029629100056,None,None,194.93029629100056,None,1.53,"[0.2715647280056146, 0.37146648099587765, 0.3061468789965147, 0.35233363199949963, 0.2666429620003328, 0.33248993800225435, 0.27730592800071463, 0.3525808339982177, 0.284189673999208, 0.3531536509981379, 0.2991101749939844, 0.3342433469952084, 0.30234835400187876]",24,198.92975111200212,None,1,1,198.92975111200212,None,You did not lose $5.00!,5.0,4,20,0.47,54.166666666666664,0.31565973715288026,"[1, 1]",83.33333333333333,18,3,199.37046186600492,None,,0.30234835400187876,,,,,0006,Scanner,1,2019_Aug_20_1456,MID,3.1.5,24.005745688472174,
LgPun,2000,0,24,24,24,,,,,,,,200.91121492299862,None,2000,202.93141169100272,None,None,202.93141169100272,None,1.53,"[0.2715647280056146, 0.37146648099587765, 0.3061468789965147, 0.35233363199949963, 0.2666429620003328, 0.33248993800225435, 0.27730592800071463, 0.3525808339982177, 0.284189673999208, 0.3531536509981379, 0.2991101749939844, 0.3342433469952084, 0.30234835400187876]",25,204.93120391100092,None,None,0,204.93120391100092,None,You lost $5.00!,0.0,4,21,0.43999999999999995,52.0,0.31565973715288026,[],83.33333333333333,21,3,205.37073922900163,None,Adjusting RT...,,,,,,0006,Scanner,1,2019_Aug_20_1456,MID,3.1.5,24.005745688472174,
SmallPun,1500,0,25,25,25,,,,,,,,206.9120266040045,None,1500,208.9315481080048,None,None,208.9315481080048,None,1.56,"[0.2715647280056146, 0.37146648099587765, 0.3061468789965147, 0.35233363199949963, 0.2666429620003328, 0.33248993800225435, 0.27730592800071463, 0.3525808339982177, 0.284189673999208, 0.3531536509981379, 0.2991101749939844, 0.3342433469952084, 0.30234835400187876]",26,210.43221858800098,None,None,0,210.43221858800098,None,You lost $0.20!,-0.2,5,22,0.43999999999999995,50.0,0.31565973715288026,[0],83.33333333333333,21,3,210.8294388120048,None,,,,,,,0006,Scanner,1,2019_Aug_20_1456,MID,3.1.5,24.005745688472174,
LgPun,3000,0,26,26,26,,,,,,,,212.37100381200435,None,3000,214.38242337100382,None,None,214.38242337100382,None,1.56,"[0.2715647280056146, 0.37146648099587765, 0.3061468789965147, 0.35233363199949963, 0.2666429620003328, 0.33248993800225435, 0.27730592800071463, 0.3525808339982177, 0.284189673999208, 0.3531536509981379, 0.2991101749939844, 0.3342433469952084, 0.30234835400187876, 0.30213818100310164]",27,217.39004886399925,None,1,1,217.39004886399925,None,You did not lose $5.00!,-0.2,4,23,0.43999999999999995,51.85185185185185,0.3146939117136104,"[0, 1]",83.33333333333333,21,3,217.78667375900113,None,,0.30213818100310164,,,,,0006,Scanner,1,2019_Aug_20_1456,MID,3.1.5,24.005745688472174,
LgReward,2000,0,27,27,27,,,,,,,,219.3289561040001,None,2000,221.3503424810042,None,None,221.3503424810042,None,1.56,"[0.2715647280056146, 0.37146648099587765, 0.3061468789965147, 0.35233363199949963, 0.2666429620003328, 0.33248993800225435, 0.27730592800071463, 0.3525808339982177, 0.284189673999208, 0.3531536509981379, 0.2991101749939844, 0.3342433469952084, 0.30234835400187876, 0.30213818100310164]",28,223.36677066200355,None,None,0,223.36677066200355,None,You did not win $5.00!,-0.2,1,24,0.45999999999999996,50.0,0.3146939117136104,[],49.99999999999999,24,3,223.74623668999993,None,Adjusting RT...,,,,,,0006,Scanner,1,2019_Aug_20_1456,MID,3.1.5,24.005745688472174,
Triangle,1500,0,28,28,28,,,,,,,,225.2883597980035,None,1500,227.30013057799806,None,None,227.30013057799806,None,1.54,"[0.2715647280056146, 0.37146648099587765, 0.3061468789965147, 0.35233363199949963, 0.2666429620003328, 0.33248993800225435, 0.27730592800071463, 0.3525808339982177, 0.284189673999208, 0.3531536509981379, 0.2991101749939844, 0.3342433469952084, 0.30234835400187876, 0.30213818100310164]",29,228.8080164540006,None,None,0,228.8080164540006,None,You did not win or lose anything!,-0.2,3,24,0.45999999999999996,48.275862068965516,0.3146939117136104,[],49.99999999999999,24,3,229.2465682059992,None,,,,,,,0006,Scanner,1,2019_Aug_20_1456,MID,3.1.5,24.005745688472174,
Triangle,2000,0,29,29,29,,,,,,,,230.78756363600405,None,2000,232.80169291399943,None,None,232.80169291399943,None,1.54,"[0.2715647280056146, 0.37146648099587765, 0.3061468789965147, 0.35233363199949963, 0.2666429620003328, 0.33248993800225435, 0.27730592800071463, 0.3525808339982177, 0.284189673999208, 0.3531536509981379, 0.2991101749939844, 0.3342433469952084, 0.30234835400187876, 0.30213818100310164, 0.34324656300304923]",30,234.8068343660052,None,1,1,234.8068343660052,None,You did not win or lose anything!,-0.2,3,24,0.45999999999999996,50.0,0.31659742179957295,[],49.99999999999999,24,3,235.24685121900256,None,,0.34324656300304923,,,,,0006,Scanner,1,2019_Aug_20_1456,MID,3.1.5,24.005745688472174,
SmallReward,4000,0,30,30,30,,,,,,,,236.78767016000347,None,4000,238.8025367279988,None,None,238.8025367279988,None,1.54,"[0.2715647280056146, 0.37146648099587765, 0.3061468789965147, 0.35233363199949963, 0.2666429620003328, 0.33248993800225435, 0.27730592800071463, 0.3525808339982177, 0.284189673999208, 0.3531536509981379, 0.2991101749939844, 0.3342433469952084, 0.30234835400187876, 0.30213818100310164, 0.34324656300304923, 0.3020501639985014]",31,242.8210307920017,None,1,1,242.8210307920017,None,You won $0.20!,0.0,2,25,0.45999999999999996,51.61290322580645,0.315688218187006,[1],49.99999999999999,24,3,243.2489028609998,None,,0.3020501639985014,,,,,0006,Scanner,1,2019_Aug_20_1456,MID,3.1.5,24.005745688472174,
Triangle,4000,0,31,31,31,,,,,,,,244.7887003979995,None,4000,246.80293010500463,None,None,246.80293010500463,None,1.54,"[0.2715647280056146, 0.37146648099587765, 0.3061468789965147, 0.35233363199949963, 0.2666429620003328, 0.33248993800225435, 0.27730592800071463, 0.3525808339982177, 0.284189673999208, 0.3531536509981379, 0.2991101749939844, 0.3342433469952084, 0.30234835400187876, 0.30213818100310164, 0.34324656300304923, 0.3020501639985014]",32,250.80810308400396,None,None,0,250.80810308400396,None,You did not win or lose anything!,0.0,3,25,0.45999999999999996,50.0,0.315688218187006,[1],49.99999999999999,24,3,251.24796991900075,None,,,,,,,0006,Scanner,1,2019_Aug_20_1456,MID,3.1.5,24.005745688472174,
SmallReward,3500,0,32,32,32,,,,,,,,252.7895344760036,None,3500,254.80431414100167,None,None,254.80431414100167,None,1.54,"[0.2715647280056146, 0.37146648099587765, 0.3061468789965147, 0.35233363199949963, 0.2666429620003328, 0.33248993800225435, 0.27730592800071463, 0.3525808339982177, 0.284189673999208, 0.3531536509981379, 0.2991101749939844, 0.3342433469952084, 0.30234835400187876, 0.30213818100310164, 0.34324656300304923, 0.3020501639985014, 0.3055062390048988]",33,258.32269184300094,None,1,1,258.32269184300094,None,You won $0.20!,0.2,2,26,0.45999999999999996,51.515151515151516,0.31508927823511734,"[1, 1]",49.99999999999999,24,3,258.74947268699907,None,,0.3055062390048988,,,,,0006,Scanner,1,2019_Aug_20_1456,MID,3.1.5,24.005745688472174,
Triangle,1500,0,33,33,33,,,,,,,,260.2895674870015,None,1500,262.30506200499804,None,None,262.30506200499804,None,1.54,"[0.2715647280056146, 0.37146648099587765, 0.3061468789965147, 0.35233363199949963, 0.2666429620003328, 0.33248993800225435, 0.27730592800071463, 0.3525808339982177, 0.284189673999208, 0.3531536509981379, 0.2991101749939844, 0.3342433469952084, 0.30234835400187876, 0.30213818100310164, 0.34324656300304923, 0.3020501639985014, 0.3055062390048988]",34,263.80964569400385,None,None,0,263.80964569400385,None,You did not win or lose anything!,0.2,3,26,0.45999999999999996,50.0,0.31508927823511734,"[1, 1]",49.99999999999999,24,3,264.2480304310011,None,,,,,,,0006,Scanner,1,2019_Aug_20_1456,MID,3.1.5,24.005745688472174,
SmallReward,1500,0,34,34,34,,,,,,,,265.79008375700505,None,1500,267.805544543,None,None,267.805544543,None,1.54,"[0.2715647280056146, 0.37146648099587765, 0.3061468789965147, 0.35233363199949963, 0.2666429620003328, 0.33248993800225435, 0.27730592800071463, 0.3525808339982177, 0.284189673999208, 0.3531536509981379, 0.2991101749939844, 0.3342433469952084, 0.30234835400187876, 0.30213818100310164, 0.34324656300304923, 0.3020501639985014, 0.3055062390048988]",35,269.31145780000224,None,None,0,269.31145780000224,None,You did not win $0.20!,0.2,2,27,0.48,48.57142857142857,0.31508927823511734,[],49.99999999999999,27,3,269.748133648005,None,Adjusting RT...,,,,,,0006,Scanner,1,2019_Aug_20_1456,MID,3.1.5,24.005745688472174,
SmallPun,4000,0,35,35,35,,,,,,,,271.2902880030015,None,4000,273.30665450900415,None,None,273.30665450900415,None,1.52,"[0.2715647280056146, 0.37146648099587765, 0.3061468789965147, 0.35233363199949963, 0.2666429620003328, 0.33248993800225435, 0.27730592800071463, 0.3525808339982177, 0.284189673999208, 0.3531536509981379, 0.2991101749939844, 0.3342433469952084, 0.30234835400187876, 0.30213818100310164, 0.34324656300304923, 0.3020501639985014, 0.3055062390048988, 0.3204752860037843]",36,277.30770910499996,None,1,1,277.30770910499996,None,You did not lose $0.20!,0.2,5,28,0.48,50.0,0.31538850088893217,[1],49.99999999999999,27,3,277.75277317900327,None,,0.3204752860037843,,,,,0006,Scanner,1,2019_Aug_20_1456,MID,3.1.5,24.005745688472174,
Triangle,1500,0,36,36,36,,,,,,,,279.24920189000113,None,1500,281.25990103500226,None,None,281.25990103500226,None,1.52,"[0.2715647280056146, 0.37146648099587765, 0.3061468789965147, 0.35233363199949963, 0.2666429620003328, 0.33248993800225435, 0.27730592800071463, 0.3525808339982177, 0.284189673999208, 0.3531536509981379, 0.2991101749939844, 0.3342433469952084, 0.30234835400187876, 0.30213818100310164, 0.34324656300304923, 0.3020501639985014, 0.3055062390048988, 0.3204752860037843]",37,282.7669043240021,None,None,0,282.7669043240021,None,You did not win or lose anything!,0.2,3,28,0.48,48.64864864864865,0.31538850088893217,[1],49.99999999999999,27,3,283.2071074580017,None,,,,,,,0006,Scanner,1,2019_Aug_20_1456,MID,3.1.5,24.005745688472174,
SmallPun,2000,0,37,37,37,,,,,,,,284.7076019610031,None,2000,286.72495236800023,None,None,286.72495236800023,None,1.52,"[0.2715647280056146, 0.37146648099587765, 0.3061468789965147, 0.35233363199949963, 0.2666429620003328, 0.33248993800225435, 0.27730592800071463, 0.3525808339982177, 0.284189673999208, 0.3531536509981379, 0.2991101749939844, 0.3342433469952084, 0.30234835400187876, 0.30213818100310164, 0.34324656300304923, 0.3020501639985014, 0.3055062390048988, 0.3204752860037843]",38,288.7257221750042,None,None,0,288.7257221750042,None,You lost $0.20!,0.0,5,29,0.48,47.368421052631575,0.31538850088893217,"[1, 0]",49.99999999999999,27,3,289.169623804999,None,,,,,,,0006,Scanner,1,2019_Aug_20_1456,MID,3.1.5,24.005745688472174,
LgReward,2500,0,38,38,38,,,,,,,,290.66600747399934,None,2500,292.6754557989989,None,None,292.6754557989989,None,1.52,"[0.2715647280056146, 0.37146648099587765, 0.3061468789965147, 0.35233363199949963, 0.2666429620003328, 0.33248993800225435, 0.27730592800071463, 0.3525808339982177, 0.284189673999208, 0.3531536509981379, 0.2991101749939844, 0.3342433469952084, 0.30234835400187876, 0.30213818100310164, 0.34324656300304923, 0.3020501639985014, 0.3055062390048988, 0.3204752860037843, 0.3133683300038683]",39,295.19882218600105,None,1,1,295.19882218600105,None,You won $5.00!,5.0,1,30,0.45999999999999996,48.717948717948715,0.31528217610550774,[],66.66666666666666,30,3,295.6264356419997,None,Adjusting RT...,0.3133683300038683,,,,,0006,Scanner,1,2019_Aug_20_1456,MID,3.1.5,24.005745688472174,
LgReward,1500,0,39,39,39,,,,,,,,297.1263492520011,None,1500,299.1435596930023,None,None,299.1435596930023,None,1.54,"[0.2715647280056146, 0.37146648099587765, 0.3061468789965147, 0.35233363199949963, 0.2666429620003328, 0.33248993800225435, 0.27730592800071463, 0.3525808339982177, 0.284189673999208, 0.3531536509981379, 0.2991101749939844, 0.3342433469952084, 0.30234835400187876, 0.30213818100310164, 0.34324656300304923, 0.3020501639985014, 0.3055062390048988, 0.3204752860037843, 0.3133683300038683]",40,300.6599646360046,None,None,0,300.6599646360046,None,You did not win $5.00!,5.0,1,31,0.45999999999999996,47.5,0.31528217610550774,[0],66.66666666666666,30,3,301.0829284479987,None,,,,,,,0006,Scanner,1,2019_Aug_20_1456,MID,3.1.5,24.005745688472174,
LgPun,1500,0,40,40,40,,,,,,,,302.625159878,None,1500,304.644266381998,None,None,304.644266381998,None,1.54,"[0.2715647280056146, 0.37146648099587765, 0.3061468789965147, 0.35233363199949963, 0.2666429620003328, 0.33248993800225435, 0.27730592800071463, 0.3525808339982177, 0.284189673999208, 0.3531536509981379, 0.2991101749939844, 0.3342433469952084, 0.30234835400187876, 0.30213818100310164, 0.34324656300304923, 0.3020501639985014, 0.3055062390048988, 0.3204752860037843, 0.3133683300038683, 0.344747389004624]",41,306.1444498580022,None,1,1,306.1444498580022,None,You did not lose $5.00!,5.0,4,32,0.45999999999999996,48.78048780487805,0.3167554367504636,"[0, 1]",66.66666666666666,30,3,306.5832222140016,None,,0.344747389004624,,,,,0006,Scanner,1,2019_Aug_20_1456,MID,3.1.5,24.005745688472174,
SmallPun,2000,0,41,41,41,,,,,,,,308.12514948900207,None,2000,310.1451348080009,None,None,310.1451348080009,None,1.54,"[0.2715647280056146, 0.37146648099587765, 0.3061468789965147, 0.35233363199949963, 0.2666429620003328, 0.33248993800225435, 0.27730592800071463, 0.3525808339982177, 0.284189673999208, 0.3531536509981379, 0.2991101749939844, 0.3342433469952084, 0.30234835400187876, 0.30213818100310164, 0.34324656300304923, 0.3020501639985014, 0.3055062390048988, 0.3204752860037843, 0.3133683300038683, 0.344747389004624, 0.33076159399934113]",42,312.14542770499975,None,1,1,312.14542770499975,None,You did not lose $0.20!,5.0,5,33,0.43999999999999995,50.0,0.3174223966194577,[],66.66666666666666,33,3,312.58414900799835,None,Adjusting RT...,0.33076159399934113,,,,,0006,Scanner,1,2019_Aug_20_1456,MID,3.1.5,24.005745688472174,
LgReward,1500,0,42,42,42,,,,,,,,314.1257128340003,None,1500,316.1457735590011,None,None,316.1457735590011,None,1.56,"[0.2715647280056146, 0.37146648099587765, 0.3061468789965147, 0.35233363199949963, 0.2666429620003328, 0.33248993800225435, 0.27730592800071463, 0.3525808339982177, 0.284189673999208, 0.3531536509981379, 0.2991101749939844, 0.3342433469952084, 0.30234835400187876, 0.30213818100310164, 0.34324656300304923, 0.3020501639985014, 0.3055062390048988, 0.3204752860037843, 0.3133683300038683, 0.344747389004624, 0.33076159399934113]",43,317.66228425100417,None,None,0,317.66228425100417,None,You did not win $5.00!,5.0,1,34,0.43999999999999995,48.837209302325576,0.3174223966194577,[0],66.66666666666666,33,3,318.04218534100073,None,,,,,,,0006,Scanner,1,2019_Aug_20_1456,MID,3.1.5,24.005745688472174,
SmallPun,1500,0,43,43,43,,,,,,,,319.584426788002,None,1500,321.59607030600455,None,None,321.59607030600455,None,1.56,"[0.2715647280056146, 0.37146648099587765, 0.3061468789965147, 0.35233363199949963, 0.2666429620003328, 0.33248993800225435, 0.27730592800071463, 0.3525808339982177, 0.284189673999208, 0.3531536509981379, 0.2991101749939844, 0.3342433469952084, 0.30234835400187876, 0.30213818100310164, 0.34324656300304923, 0.3020501639985014, 0.3055062390048988, 0.3204752860037843, 0.3133683300038683, 0.344747389004624, 0.33076159399934113]",44,323.1027039250039,None,None,0,323.1027039250039,None,You lost $0.20!,4.8,5,35,0.43999999999999995,47.72727272727273,0.3174223966194577,"[0, 0]",66.66666666666666,33,3,323.50074135699833,None,,,,,,,0006,Scanner,1,2019_Aug_20_1456,MID,3.1.5,24.005745688472174,
SmallReward,1500,0,44,44,44,,,,,,,,325.04292318600346,None,1500,327.06306241400307,None,None,327.06306241400307,None,1.56,"[0.2715647280056146, 0.37146648099587765, 0.3061468789965147, 0.35233363199949963, 0.2666429620003328, 0.33248993800225435, 0.27730592800071463, 0.3525808339982177, 0.284189673999208, 0.3531536509981379, 0.2991101749939844, 0.3342433469952084, 0.30234835400187876, 0.30213818100310164, 0.34324656300304923, 0.3020501639985014, 0.3055062390048988, 0.3204752860037843, 0.3133683300038683, 0.344747389004624, 0.33076159399934113]",45,328.57177081899863,None,None,0,328.57177081899863,None,You did not win $0.20!,4.8,2,36,0.4799999999999999,46.666666666666664,0.3174223966194577,[],33.33333333333333,36,3,328.96084396500373,None,Adjusting RT...,,,,,,0006,Scanner,1,2019_Aug_20_1456,MID,3.1.5,24.005745688472174,
LgReward,4000,0,45,45,45,,,,,,,,330.50159654000163,None,4000,332.5146672300034,None,None,332.5146672300034,None,1.52,"[0.2715647280056146, 0.37146648099587765, 0.3061468789965147, 0.35233363199949963, 0.2666429620003328, 0.33248993800225435, 0.27730592800071463, 0.3525808339982177, 0.284189673999208, 0.3531536509981379, 0.2991101749939844, 0.3342433469952084, 0.30234835400187876, 0.30213818100310164, 0.34324656300304923, 0.3020501639985014, 0.3055062390048988, 0.3204752860037843, 0.3133683300038683, 0.344747389004624, 0.33076159399934113]",46,336.53136442400137,None,None,0,336.53136442400137,None,You did not win $5.00!,4.8,1,37,0.4799999999999999,45.65217391304348,0.3174223966194577,[0],33.33333333333333,36,3,336.96371244900365,None,,,,,,,0006,Scanner,1,2019_Aug_20_1456,MID,3.1.5,24.005745688472174,
Triangle,3000,0,46,46,46,,,,,,,,338.45905281800515,None,3000,340.4822948190049,None,None,340.4822948190049,None,1.52,"[0.2715647280056146, 0.37146648099587765, 0.3061468789965147, 0.35233363199949963, 0.2666429620003328, 0.33248993800225435, 0.27730592800071463, 0.3525808339982177, 0.284189673999208, 0.3531536509981379, 0.2991101749939844, 0.3342433469952084, 0.30234835400187876, 0.30213818100310164, 0.34324656300304923, 0.3020501639985014, 0.3055062390048988, 0.3204752860037843, 0.3133683300038683, 0.344747389004624, 0.33076159399934113]",47,343.48262477900425,None,None,0,343.48262477900425,None,You did not win or lose anything!,4.8,3,37,0.4799999999999999,44.680851063829785,0.3174223966194577,[0],33.33333333333333,36,3,343.91852826299873,None,,,,,,,0006,Scanner,1,2019_Aug_20_1456,MID,3.1.5,24.005745688472174,
SmallPun,3000,0,47,47,47,,,,,,,,345.4185244469991,None,3000,347.4333829850002,None,None,347.4333829850002,None,1.52,"[0.2715647280056146, 0.37146648099587765, 0.3061468789965147, 0.35233363199949963, 0.2666429620003328, 0.33248993800225435, 0.27730592800071463, 0.3525808339982177, 0.284189673999208, 0.3531536509981379, 0.2991101749939844, 0.3342433469952084, 0.30234835400187876, 0.30213818100310164, 0.34324656300304923, 0.3020501639985014, 0.3055062390048988, 0.3204752860037843, 0.3133683300038683, 0.344747389004624, 0.33076159399934113, 0.3246165349992225]",48,350.4375351800045,None,1,1,350.4375351800045,None,You did not lose $0.20!,4.8,5,38,0.4799999999999999,45.83333333333333,0.31774940290944703,"[0, 1]",33.33333333333333,36,3,350.8771627790047,None,,0.3246165349992225,,,,,0006,Scanner,1,2019_Aug_20_1456,MID,3.1.5,24.005745688472174,
SmallPun,2500,0,48,48,48,,,,,,,,352.37725448800484,None,2500,354.39991225300037,None,None,354.39991225300037,None,1.52,"[0.2715647280056146, 0.37146648099587765, 0.3061468789965147, 0.35233363199949963, 0.2666429620003328, 0.33248993800225435, 0.27730592800071463, 0.3525808339982177, 0.284189673999208, 0.3531536509981379, 0.2991101749939844, 0.3342433469952084, 0.30234835400187876, 0.30213818100310164, 0.34324656300304923, 0.3020501639985014, 0.3055062390048988, 0.3204752860037843, 0.3133683300038683, 0.344747389004624, 0.33076159399934113, 0.3246165349992225]",49,356.9009248980001,None,None,0,356.9009248980001,None,You lost $0.20!,4.6,5,39,0.5,44.89795918367347,0.31774940290944703,[],16.666666666666664,39,3,357.3356746720019,None,Adjusting RT...,,,,,,0006,Scanner,1,2019_Aug_20_1456,MID,3.1.5,24.005745688472174,
SmallReward,2000,0,49,49,49,,,,,,,,358.8359524309999,None,2000,360.85212861499895,None,None,360.85212861499895,None,1.5,"[0.2715647280056146, 0.37146648099587765, 0.3061468789965147, 0.35233363199949963, 0.2666429620003328, 0.33248993800225435, 0.27730592800071463, 0.3525808339982177, 0.284189673999208, 0.3531536509981379, 0.2991101749939844, 0.3342433469952084, 0.30234835400187876, 0.30213818100310164, 0.34324656300304923, 0.3020501639985014, 0.3055062390048988, 0.3204752860037843, 0.3133683300038683, 0.344747389004624, 0.33076159399934113, 0.3246165349992225, 0.30240259200218134]",50,362.87178302399843,None,1,1,362.87178302399843,None,You won $0.20!,4.8,2,40,0.5,46.0,0.31708215026130504,[1],16.666666666666664,39,3,363.3381730399997,None,,0.30240259200218134,,,,,0006,Scanner,1,2019_Aug_20_1456,MID,3.1.5,24.005745688472174,
,,,,,,,,,,,,,,,,,,,,,,,,,,,,,,,,,,,,,,,,,,,,,,,,,0006,Scanner,1,2019_Aug_20_1456,MID,3.1.5,24.005745688472174,
,,,,,,,,,,,,,,,,,,,,,,,,,,,,,,,,,,,,,,,,,,,,,364.8381864960029,None,369.83848822700384,None,,,,,,,,
