Condition,FixationDur,run.thisRepN,run.thisTrialN,run.thisN,run.thisIndex,trials.thisRepN,trials.thisTrialN,trials.thisN,trials.thisIndex,instructFig.started,instructFig.stopped,text_2.started,text_2.stopped,PrepFixation.started,PrepFixation.stopped,cueImage.started,cueImage.stopped,FixationDur,fixation.started,fixation.stopped,fixationResp.keys,fixationResp.started,fixationResp.stopped,feedbackDur,rt_list,Trial counter,Target.started,Target.stopped,probeResp.keys,probeResp.corr,probeResp.rt,probeResp.started,probeResp.stopped,msg,TrackEarnings,TrialType,NonNeutralTrialsNum,probeDur,percentacc_total,meanrt,UserAcc,Acc,AdjTrial,AdjTrialInc,feedbackMsg.started,feedbackMsg.stopped,AdjRTmsg,fixationResp.rt,polygon.started,polygon.stopped,text.started,text.stopped,participant,session,practiceRT,trial Order,date,expName,psychopyVersion,frameRate,
SmallPun,3500,0,0,0,0,0,0,0,0,6.238341436001065,None,8.114707096996426,None,8.997557672999392,None,10.998474861997238,None,3500,13.01540401300008,None,None,13.01540401300008,None,1.5,[0.27773098099714844],1,16.530138514994178,None,1,1,0.27773098099714844,16.530138514994178,None,You did not lose $0.20!,0,5,1,0.5,100.0,0.27773098099714844,[1],0,0,3,16.999527863998082,None,,,,,,,1,001,.5,1,2019_Aug_07_1221,MID,3.1.5,59.85288997679131,
Triangle,3000,0,0,0,0,0,1,1,1,,,,,,,18.48233215399523,None,3000,20.51581169199926,None,None,20.51581169199926,None,1.5,"[0.27773098099714844, 0.38358042699837824]",2,23.529559403999883,None,1,1,0.38358042699837824,23.529559403999883,None,You did not win or lose anything!,0,3,1,0.5,100.0,0.33065570399776334,[1],0,0,3,24.000134231995617,None,,,,,,,1,001,.5,1,2019_Aug_07_1221,MID,3.1.5,59.85288997679131,
SmallPun,2000,0,0,0,0,0,2,2,2,,,,,,,25.483411327993963,None,2000,27.517151749998447,None,None,27.517151749998447,None,1.5,"[0.27773098099714844, 0.38358042699837824, 0.26019814999744995]",3,29.516935811996518,None,1,1,0.26019814999744995,29.516935811996518,None,You did not lose $0.20!,0,5,2,0.5,100.0,0.30716985266432556,"[1, 1]",0,0,3,30.000556649996724,None,,,,,,,1,001,.5,1,2019_Aug_07_1221,MID,3.1.5,59.85288997679131,
SmallReward,1500,0,0,0,0,0,3,3,3,,,,,,,31.500441772994236,None,1500,33.51807271099824,None,None,33.51807271099824,None,1.5,"[0.27773098099714844, 0.38358042699837824, 0.26019814999744995, 0.25041592799971113]",4,35.03444418399886,None,1,1,0.25041592799971113,35.03444418399886,None,You won $0.20!,0.2,2,3,0.45,100.0,0.29298137149817194,[],100.0,3,3,35.50146683299681,None,Adjusting RT...,,,,,,1,001,.5,1,2019_Aug_07_1221,MID,3.1.5,59.85288997679131,
LgReward,1500,0,0,0,0,0,4,4,4,,,,,,,37.00786187299673,None,1500,39.01858509199519,None,None,39.01858509199519,None,1.55,"[0.27773098099714844, 0.38358042699837824, 0.26019814999744995, 0.25041592799971113, 0.2553734120010631]",5,40.54560197299725,None,1,1,0.2553734120010631,40.54560197299725,None,You won $5.00!,5.2,1,4,0.45,100.0,0.2854597795987502,[1],100.0,3,3,40.952114545994846,None,,,,,,,1,001,.5,1,2019_Aug_07_1221,MID,3.1.5,59.85288997679131,
SmallReward,1500,0,0,0,0,0,5,5,5,,,,,,,42.50224190099834,None,1500,44.51951422199636,None,None,44.51951422199636,None,1.55,"[0.27773098099714844, 0.38358042699837824, 0.26019814999744995, 0.25041592799971113, 0.2553734120010631, 0.2550152839976363]",6,46.03640691899636,None,1,1,0.2550152839976363,46.03640691899636,None,You won $0.20!,5.4,2,5,0.45,100.0,0.2803856969985645,"[1, 1]",100.0,3,3,46.45293410999875,None,,,,,,,1,001,.5,1,2019_Aug_07_1221,MID,3.1.5,59.85288997679131,
Triangle,1500,0,0,0,0,0,6,6,6,,,,,,,47.988050185995235,None,1500,50.0194318549984,None,None,50.0194318549984,None,1.55,"[0.27773098099714844, 0.38358042699837824, 0.26019814999744995, 0.25041592799971113, 0.2553734120010631, 0.2550152839976363, 0.2465918150046491]",7,51.53311381599633,None,1,1,0.2465918150046491,51.53311381599633,None,You did not win or lose anything!,5.4,3,5,0.45,100.0,0.2755579995708623,"[1, 1]",100.0,3,3,51.95356553099555,None,,,,,,,1,001,.5,1,2019_Aug_07_1221,MID,3.1.5,59.85288997679131,
LgPun,2500,0,0,0,0,0,7,7,7,,,,,,,53.48964879399864,None,2500,55.52069084399409,None,None,55.52069084399409,None,1.55,"[0.27773098099714844, 0.38358042699837824, 0.26019814999744995, 0.25041592799971113, 0.2553734120010631, 0.2550152839976363, 0.2465918150046491, 0.2763600440011942]",8,58.03392257899395,None,1,1,0.2763600440011942,58.03392257899395,None,You did not lose $5.00!,5.4,4,6,0.4,100.0,0.2756582551246538,[],100.0,6,3,58.45488838700112,None,Adjusting RT...,,,,,,1,001,.5,1,2019_Aug_07_1221,MID,3.1.5,59.85288997679131,
SmallReward,3500,0,0,0,0,0,8,8,8,,,,,,,60.003938918998756,None,3500,62.02108976800082,None,None,62.02108976800082,None,1.6,"[0.27773098099714844, 0.38358042699837824, 0.26019814999744995, 0.25041592799971113, 0.2553734120010631, 0.2550152839976363, 0.2465918150046491, 0.2763600440011942, 0.2289352349980618]",9,65.55206629999884,None,1,1,0.2289352349980618,65.55206629999884,None,You won $0.20!,5.6000000000000005,2,7,0.4,100.0,0.27046680844392135,[1],100.0,6,3,65.90538831299637,None,,,,,,,1,001,.5,1,2019_Aug_07_1221,MID,3.1.5,59.85288997679131,
SmallReward,2000,0,0,0,0,0,9,9,9,,,,,,,67.50515919699683,None,2000,69.52291035199596,None,None,69.52291035199596,None,1.6,"[0.27773098099714844, 0.38358042699837824, 0.26019814999744995, 0.25041592799971113, 0.2553734120010631, 0.2550152839976363, 0.2465918150046491, 0.2763600440011942, 0.2289352349980618]",10,71.53943706800055,None,None,0,,71.53943706800055,None,You did not win $0.20!,5.6000000000000005,2,8,0.4,90.0,0.27046680844392135,"[1, 0]",100.0,6,3,71.90616404100001,None,,,,,,,1,001,.5,1,2019_Aug_07_1221,MID,3.1.5,59.85288997679131,
Triangle,4000,0,0,0,0,0,10,10,10,,,,,,,73.49134128799778,None,4000,75.52276191699639,None,None,75.52276191699639,None,1.6,"[0.27773098099714844, 0.38358042699837824, 0.26019814999744995, 0.25041592799971113, 0.2553734120010631, 0.2550152839976363, 0.2465918150046491, 0.2763600440011942, 0.2289352349980618, 0.24017292800272116]",11,79.53681143099675,None,1,1,0.24017292800272116,79.53681143099675,None,You did not win or lose anything!,5.6000000000000005,3,8,0.4,90.9090909090909,0.26743742039980134,"[1, 0]",100.0,6,3,79.90721039699565,None,,,,,,,1,001,.5,1,2019_Aug_07_1221,MID,3.1.5,59.85288997679131,
SmallPun,1500,0,0,0,0,0,11,11,11,,,,,,,81.4905634589959,None,1500,83.52458469599515,None,None,83.52458469599515,None,1.6,"[0.27773098099714844, 0.38358042699837824, 0.26019814999744995, 0.25041592799971113, 0.2553734120010631, 0.2550152839976363, 0.2465918150046491, 0.2763600440011942, 0.2289352349980618, 0.24017292800272116, 0.3309272190017509]",12,85.0245839679992,None,1,1,0.3309272190017509,85.0245839679992,None,You did not lose $0.20!,5.6000000000000005,5,9,0.37,91.66666666666666,0.27320922027270583,[],83.33333333333333,9,3,85.40704272799485,None,Adjusting RT...,,,,,,1,001,.5,1,2019_Aug_07_1221,MID,3.1.5,59.85288997679131,
LgReward,2500,0,0,0,0,0,12,12,12,,,,,,,87.02135568799713,None,2500,89.02450937799586,None,None,89.02450937799586,None,1.63,"[0.27773098099714844, 0.38358042699837824, 0.26019814999744995, 0.25041592799971113, 0.2553734120010631, 0.2550152839976363, 0.2465918150046491, 0.2763600440011942, 0.2289352349980618, 0.24017292800272116, 0.3309272190017509, 0.26651511400268646]",13,91.55235973399977,None,1,1,0.26651511400268646,91.55235973399977,None,You won $5.00!,10.600000000000001,1,10,0.37,92.3076923076923,0.27265137808353757,[1],83.33333333333333,9,3,91.8756088730006,None,,,,,,,1,001,.5,1,2019_Aug_07_1221,MID,3.1.5,59.85288997679131,
SmallReward,3000,0,0,0,0,0,13,13,13,,,,,,,93.50917715899413,None,3000,95.52602744799515,None,None,95.52602744799515,None,1.63,"[0.27773098099714844, 0.38358042699837824, 0.26019814999744995, 0.25041592799971113, 0.2553734120010631, 0.2550152839976363, 0.2465918150046491, 0.2763600440011942, 0.2289352349980618, 0.24017292800272116, 0.3309272190017509, 0.26651511400268646, 0.2527252040017629]",14,98.55386591299612,None,1,1,0.2527252040017629,98.55386591299612,None,You won $0.20!,10.8,2,11,0.37,92.85714285714286,0.27111859546186257,"[1, 1]",83.33333333333333,9,3,98.8759582279963,None,,,,,,,1,001,.5,1,2019_Aug_07_1221,MID,3.1.5,59.85288997679131,
SmallPun,1500,0,0,0,0,0,14,14,14,,,,,,,100.4930287229945,None,1500,102.52625952800008,None,None,102.52625952800008,None,1.63,"[0.27773098099714844, 0.38358042699837824, 0.26019814999744995, 0.25041592799971113, 0.2553734120010631, 0.2550152839976363, 0.2465918150046491, 0.2763600440011942, 0.2289352349980618, 0.24017292800272116, 0.3309272190017509, 0.26651511400268646, 0.2527252040017629]",15,104.02734378899913,None,None,0,,104.02734378899913,None,You lost $0.20!,10.600000000000001,5,12,0.35,86.66666666666667,0.27111859546186257,[],66.66666666666666,12,3,104.37674344499828,None,Adjusting RT...,,,,,,1,001,.5,1,2019_Aug_07_1221,MID,3.1.5,59.85288997679131,
Triangle,2500,0,0,0,0,0,15,15,15,,,,,,,105.99553463899792,None,2500,108.02778265699453,None,1,108.02778265699453,None,1.65,"[0.27773098099714844, 0.38358042699837824, 0.26019814999744995, 0.25041592799971113, 0.2553734120010631, 0.2550152839976363, 0.2465918150046491, 0.2763600440011942, 0.2289352349980618, 0.24017292800272116, 0.3309272190017509, 0.26651511400268646, 0.2527252040017629]",16,110.54079418399488,None,None,0,,110.54079418399488,None,You did not win or lose anything!,10.600000000000001,3,12,0.35,81.25,0.27111859546186257,[],66.66666666666666,12,3,110.86126125299779,None,,1.8787258789961925,,,,,1,001,.5,1,2019_Aug_07_1221,MID,3.1.5,59.85288997679131,
Triangle,1500,0,0,0,0,0,16,16,16,,,,,,,112.49406987700058,None,1500,114.52879016299994,None,None,114.52879016299994,None,1.65,"[0.27773098099714844, 0.38358042699837824, 0.26019814999744995, 0.25041592799971113, 0.2553734120010631, 0.2550152839976363, 0.2465918150046491, 0.2763600440011942, 0.2289352349980618, 0.24017292800272116, 0.3309272190017509, 0.26651511400268646, 0.2527252040017629]",17,116.02798360699671,None,None,0,,116.02798360699671,None,You did not win or lose anything!,10.600000000000001,3,12,0.35,76.47058823529412,0.27111859546186257,[],66.66666666666666,12,3,116.36196343299525,None,,,,,,,1,001,.5,1,2019_Aug_07_1221,MID,3.1.5,59.85288997679131,
SmallPun,4000,0,0,0,0,0,17,17,17,,,,,,,117.99716688899935,None,4000,120.02932766099548,None,None,120.02932766099548,None,1.65,"[0.27773098099714844, 0.38358042699837824, 0.26019814999744995, 0.25041592799971113, 0.2553734120010631, 0.2550152839976363, 0.2465918150046491, 0.2763600440011942, 0.2289352349980618, 0.24017292800272116, 0.3309272190017509, 0.26651511400268646, 0.2527252040017629, 0.23252140099793905]",18,124.04236288399989,None,1,1,0.23252140099793905,124.04236288399989,None,You did not lose $0.20!,10.600000000000001,5,13,0.35,77.77777777777779,0.26836165300015374,[1],66.66666666666666,12,3,124.362580393994,None,,,,,,,1,001,.5,1,2019_Aug_07_1221,MID,3.1.5,59.85288997679131,
LgPun,3500,0,0,0,0,0,18,18,18,,,,,,,125.99602613399475,None,3500,128.0301565109985,None,None,128.0301565109985,None,1.65,"[0.27773098099714844, 0.38358042699837824, 0.26019814999744995, 0.25041592799971113, 0.2553734120010631, 0.2550152839976363, 0.2465918150046491, 0.2763600440011942, 0.2289352349980618, 0.24017292800272116, 0.3309272190017509, 0.26651511400268646, 0.2527252040017629, 0.23252140099793905]",19,131.54363500399631,None,None,0,,131.54363500399631,None,You lost $5.00!,5.600000000000001,4,14,0.35,73.68421052631578,0.26836165300015374,"[1, 0]",66.66666666666666,12,3,131.86402333199658,None,,,,,,,1,001,.5,1,2019_Aug_07_1221,MID,3.1.5,59.85288997679131,
LgReward,4000,0,0,0,0,0,19,19,19,,,,,,,133.5144746129954,None,4000,135.53100051299407,None,1,135.53100051299407,None,1.65,"[0.27773098099714844, 0.38358042699837824, 0.26019814999744995, 0.25041592799971113, 0.2553734120010631, 0.2550152839976363, 0.2465918150046491, 0.2763600440011942, 0.2289352349980618, 0.24017292800272116, 0.3309272190017509, 0.26651511400268646, 0.2527252040017629, 0.23252140099793905]",20,139.5611719879962,None,None,0,,139.5611719879962,None,You did not win $5.00!,5.600000000000001,1,15,0.37,70.0,0.26836165300015374,[],49.99999999999999,15,3,139.865357046001,None,Adjusting RT...,3.1022023430050467,,,,,1,001,.5,1,2019_Aug_07_1221,MID,3.1.5,59.85288997679131,
LgPun,1500,0,0,0,0,0,20,20,20,,,,,,,141.49841511399427,None,1500,143.53221789699455,None,None,143.53221789699455,None,1.63,"[0.27773098099714844, 0.38358042699837824, 0.26019814999744995, 0.25041592799971113, 0.2553734120010631, 0.2550152839976363, 0.2465918150046491, 0.2763600440011942, 0.2289352349980618, 0.24017292800272116, 0.3309272190017509, 0.26651511400268646, 0.2527252040017629, 0.23252140099793905]",21,145.03225305299566,None,None,0,,145.03225305299566,None,You lost $5.00!,0.6000000000000014,4,16,0.37,66.66666666666666,0.26836165300015374,[0],49.99999999999999,15,3,145.38230925099924,None,,,,,,,1,001,.5,1,2019_Aug_07_1221,MID,3.1.5,59.85288997679131,
SmallPun,2000,0,0,0,0,0,21,21,21,,,,,,,147.0005305809973,None,2000,149.03251718699903,None,None,149.03251718699903,None,1.63,"[0.27773098099714844, 0.38358042699837824, 0.26019814999744995, 0.25041592799971113, 0.2553734120010631, 0.2550152839976363, 0.2465918150046491, 0.2763600440011942, 0.2289352349980618, 0.24017292800272116, 0.3309272190017509, 0.26651511400268646, 0.2527252040017629, 0.23252140099793905, 0.26037774599535624]",22,151.04618413199933,None,1,1,0.26037774599535624,151.04618413199933,None,You did not lose $0.20!,0.6000000000000014,5,17,0.37,68.18181818181817,0.2678293925331673,"[0, 1]",49.99999999999999,15,3,151.38291140599904,None,,,,,,,1,001,.5,1,2019_Aug_07_1221,MID,3.1.5,59.85288997679131,
LgPun,1500,0,0,0,0,0,22,22,22,,,,,,,153.00028168199788,None,1500,155.0338833220012,None,None,155.0338833220012,None,1.63,"[0.27773098099714844, 0.38358042699837824, 0.26019814999744995, 0.25041592799971113, 0.2553734120010631, 0.2550152839976363, 0.2465918150046491, 0.2763600440011942, 0.2289352349980618, 0.24017292800272116, 0.3309272190017509, 0.26651511400268646, 0.2527252040017629, 0.23252140099793905, 0.26037774599535624]",23,156.53407244799746,None,None,0,,156.53407244799746,None,You lost $5.00!,-4.399999999999999,4,18,0.41,65.21739130434783,0.2678293925331673,[],33.33333333333333,18,3,156.88417354799458,None,Adjusting RT...,,,,,,1,001,.5,1,2019_Aug_07_1221,MID,3.1.5,59.85288997679131,
SmallReward,2500,0,0,0,0,0,23,23,23,,,,,,,158.52411643199594,None,2500,160.53396511999745,None,None,160.53396511999745,None,1.59,"[0.27773098099714844, 0.38358042699837824, 0.26019814999744995, 0.25041592799971113, 0.2553734120010631, 0.2550152839976363, 0.2465918150046491, 0.2763600440011942, 0.2289352349980618, 0.24017292800272116, 0.3309272190017509, 0.26651511400268646, 0.2527252040017629, 0.23252140099793905, 0.26037774599535624, 0.2647544330029632]",24,163.0615646829974,None,1,1,0.2647544330029632,163.0615646829974,None,You won $0.20!,-4.199999999999998,2,19,0.41,66.66666666666666,0.2676372075625295,[1],33.33333333333333,18,3,163.41806946699944,None,,,,,,,1,001,.5,1,2019_Aug_07_1221,MID,3.1.5,59.85288997679131,
Triangle,2000,0,0,0,0,0,24,24,24,,,,,,,164.98479762399802,None,2000,167.018250532994,None,None,167.018250532994,None,1.59,"[0.27773098099714844, 0.38358042699837824, 0.26019814999744995, 0.25041592799971113, 0.2553734120010631, 0.2550152839976363, 0.2465918150046491, 0.2763600440011942, 0.2289352349980618, 0.24017292800272116, 0.3309272190017509, 0.26651511400268646, 0.2527252040017629, 0.23252140099793905, 0.26037774599535624, 0.2647544330029632]",25,169.01870868699916,None,None,0,,169.01870868699916,None,You did not win or lose anything!,-4.199999999999998,3,19,0.41,64.0,0.2676372075625295,[1],33.33333333333333,18,3,169.4026857860008,None,,,,,,,1,001,.5,1,2019_Aug_07_1221,MID,3.1.5,59.85288997679131,
LgPun,2000,0,0,0,0,0,25,25,25,,,,,,,170.96887512199464,None,2000,173.00304582199897,None,1,173.00304582199897,None,1.59,"[0.27773098099714844, 0.38358042699837824, 0.26019814999744995, 0.25041592799971113, 0.2553734120010631, 0.2550152839976363, 0.2465918150046491, 0.2763600440011942, 0.2289352349980618, 0.24017292800272116, 0.3309272190017509, 0.26651511400268646, 0.2527252040017629, 0.23252140099793905, 0.26037774599535624, 0.2647544330029632]",26,175.00342912999622,None,None,0,,175.00342912999622,None,You lost $5.00!,-9.2,4,20,0.41,61.53846153846154,0.2676372075625295,"[1, 0]",33.33333333333333,18,3,175.38629948699963,None,,0.3357825720013352,,,,,1,001,.5,1,2019_Aug_07_1221,MID,3.1.5,59.85288997679131,
LgReward,1500,0,0,0,0,0,26,26,26,,,,,,,176.96908747199632,None,1500,178.98625720099517,None,None,178.98625720099517,None,1.59,"[0.27773098099714844, 0.38358042699837824, 0.26019814999744995, 0.25041592799971113, 0.2553734120010631, 0.2550152839976363, 0.2465918150046491, 0.2763600440011942, 0.2289352349980618, 0.24017292800272116, 0.3309272190017509, 0.26651511400268646, 0.2527252040017629, 0.23252140099793905, 0.26037774599535624, 0.2647544330029632]",27,180.50371820599685,None,None,0,,180.50371820599685,None,You did not win $5.00!,-9.2,1,21,0.44999999999999996,59.25925925925925,0.2676372075625295,[],33.33333333333333,21,3,180.87038700799894,None,Adjusting RT...,,,,,,1,001,.5,1,2019_Aug_07_1221,MID,3.1.5,59.85288997679131,
LgPun,4000,0,0,0,0,0,27,27,27,,,,,,,182.4388581489984,None,4000,184.46966920200066,None,None,184.46966920200066,None,1.55,"[0.27773098099714844, 0.38358042699837824, 0.26019814999744995, 0.25041592799971113, 0.2553734120010631, 0.2550152839976363, 0.2465918150046491, 0.2763600440011942, 0.2289352349980618, 0.24017292800272116, 0.3309272190017509, 0.26651511400268646, 0.2527252040017629, 0.23252140099793905, 0.26037774599535624, 0.2647544330029632, 0.24474878200271633]",28,188.48410067999794,None,1,1,0.24474878200271633,188.48410067999794,None,You did not lose $5.00!,-9.2,4,22,0.44999999999999996,60.71428571428571,0.2662908295884229,[1],33.33333333333333,21,3,188.9051838949963,None,,,,,,,1,001,.5,1,2019_Aug_07_1221,MID,3.1.5,59.85288997679131,
LgReward,3500,0,0,0,0,0,28,28,28,,,,,,,190.4543097239948,None,3500,192.47184017799736,None,None,192.47184017799736,None,1.55,"[0.27773098099714844, 0.38358042699837824, 0.26019814999744995, 0.25041592799971113, 0.2553734120010631, 0.2550152839976363, 0.2465918150046491, 0.2763600440011942, 0.2289352349980618, 0.24017292800272116, 0.3309272190017509, 0.26651511400268646, 0.2527252040017629, 0.23252140099793905, 0.26037774599535624, 0.2647544330029632, 0.24474878200271633, 0.2411801620037295]",29,196.0013022169951,None,1,1,0.2411801620037295,196.0013022169951,None,You won $5.00!,-4.199999999999999,1,23,0.44999999999999996,62.06896551724138,0.2648957925003843,"[1, 1]",33.33333333333333,21,3,196.40576207100094,None,,,,,,,1,001,.5,1,2019_Aug_07_1221,MID,3.1.5,59.85288997679131,
LgReward,1500,0,0,0,0,0,29,29,29,,,,,,,197.95574238999689,None,1500,199.97226141599822,None,None,199.97226141599822,None,1.55,"[0.27773098099714844, 0.38358042699837824, 0.26019814999744995, 0.25041592799971113, 0.2553734120010631, 0.2550152839976363, 0.2465918150046491, 0.2763600440011942, 0.2289352349980618, 0.24017292800272116, 0.3309272190017509, 0.26651511400268646, 0.2527252040017629, 0.23252140099793905, 0.26037774599535624, 0.2647544330029632, 0.24474878200271633, 0.2411801620037295, 0.3752834980041371]",30,201.47275867199642,None,1,1,0.3752834980041371,201.47275867199642,None,You won $5.00!,0.8000000000000007,1,24,0.42999999999999994,63.33333333333333,0.27070567173742394,[],66.66666666666666,24,3,201.88989178399788,None,Adjusting RT...,,,,,,1,001,.5,1,2019_Aug_07_1221,MID,3.1.5,59.85288997679131,
SmallPun,1500,0,0,0,0,0,30,30,30,,,,,,,203.44161815999541,None,1500,205.47349080399727,None,None,205.47349080399727,None,1.57,"[0.27773098099714844, 0.38358042699837824, 0.26019814999744995, 0.25041592799971113, 0.2553734120010631, 0.2550152839976363, 0.2465918150046491, 0.2763600440011942, 0.2289352349980618, 0.24017292800272116, 0.3309272190017509, 0.26651511400268646, 0.2527252040017629, 0.23252140099793905, 0.26037774599535624, 0.2647544330029632, 0.24474878200271633, 0.2411801620037295, 0.3752834980041371, 0.2910703919988009]",31,206.9868484319959,None,1,1,0.2910703919988009,206.9868484319959,None,You did not lose $0.20!,0.8000000000000007,5,25,0.42999999999999994,64.51612903225806,0.2717239077504928,[1],66.66666666666666,24,3,207.3905108389954,None,,,,,,,1,001,.5,1,2019_Aug_07_1221,MID,3.1.5,59.85288997679131,
SmallReward,1500,0,0,0,0,0,31,31,31,,,,,,,208.95714954999858,None,1500,210.97431346699886,None,None,210.97431346699886,None,1.57,"[0.27773098099714844, 0.38358042699837824, 0.26019814999744995, 0.25041592799971113, 0.2553734120010631, 0.2550152839976363, 0.2465918150046491, 0.2763600440011942, 0.2289352349980618, 0.24017292800272116, 0.3309272190017509, 0.26651511400268646, 0.2527252040017629, 0.23252140099793905, 0.26037774599535624, 0.2647544330029632, 0.24474878200271633, 0.2411801620037295, 0.3752834980041371, 0.2910703919988009, 0.28127865200076485]",32,212.4913804359967,None,1,1,0.28127865200076485,212.4913804359967,None,You won $0.20!,1.0000000000000007,2,26,0.42999999999999994,65.625,0.2721788955719343,"[1, 1]",66.66666666666666,24,3,212.89118854899425,None,,,,,,,1,001,.5,1,2019_Aug_07_1221,MID,3.1.5,59.85288997679131,
Triangle,2000,0,0,0,0,0,32,32,32,,,,,,,214.44399794399942,None,2000,216.47510277499532,None,None,216.47510277499532,None,1.57,"[0.27773098099714844, 0.38358042699837824, 0.26019814999744995, 0.25041592799971113, 0.2553734120010631, 0.2550152839976363, 0.2465918150046491, 0.2763600440011942, 0.2289352349980618, 0.24017292800272116, 0.3309272190017509, 0.26651511400268646, 0.2527252040017629, 0.23252140099793905, 0.26037774599535624, 0.2647544330029632, 0.24474878200271633, 0.2411801620037295, 0.3752834980041371, 0.2910703919988009, 0.28127865200076485, 0.2612591269935365]",33,218.4883920919965,None,1,1,0.2612591269935365,218.4883920919965,None,You did not win or lose anything!,1.0000000000000007,3,26,0.42999999999999994,66.66666666666666,0.27168254245473444,"[1, 1]",66.66666666666666,24,3,218.89203841799463,None,,,,,,,1,001,.5,1,2019_Aug_07_1221,MID,3.1.5,59.85288997679131,
LgPun,1500,0,0,0,0,0,33,33,33,,,,,,,220.44200114999694,None,1500,222.47495027900004,None,None,222.47495027900004,None,1.57,"[0.27773098099714844, 0.38358042699837824, 0.26019814999744995, 0.25041592799971113, 0.2553734120010631, 0.2550152839976363, 0.2465918150046491, 0.2763600440011942, 0.2289352349980618, 0.24017292800272116, 0.3309272190017509, 0.26651511400268646, 0.2527252040017629, 0.23252140099793905, 0.26037774599535624, 0.2647544330029632, 0.24474878200271633, 0.2411801620037295, 0.3752834980041371, 0.2910703919988009, 0.28127865200076485, 0.2612591269935365, 0.3358231290039839]",34,223.97547893099545,None,1,1,0.3358231290039839,223.97547893099545,None,You did not lose $5.00!,1.0000000000000007,4,27,0.37999999999999995,67.64705882352942,0.2744712636090496,[],100.0,27,3,224.39282201400056,None,Adjusting RT...,,,,,,1,001,.5,1,2019_Aug_07_1221,MID,3.1.5,59.85288997679131,
Triangle,1500,0,0,0,0,0,34,34,34,,,,,,,225.94509329200082,None,1500,227.97660610999446,None,None,227.97660610999446,None,1.62,"[0.27773098099714844, 0.38358042699837824, 0.26019814999744995, 0.25041592799971113, 0.2553734120010631, 0.2550152839976363, 0.2465918150046491, 0.2763600440011942, 0.2289352349980618, 0.24017292800272116, 0.3309272190017509, 0.26651511400268646, 0.2527252040017629, 0.23252140099793905, 0.26037774599535624, 0.2647544330029632, 0.24474878200271633, 0.2411801620037295, 0.3752834980041371, 0.2910703919988009, 0.28127865200076485, 0.2612591269935365, 0.3358231290039839]",35,229.48975741100003,None,None,0,,229.48975741100003,None,You did not win or lose anything!,1.0000000000000007,3,27,0.37999999999999995,65.71428571428571,0.2744712636090496,[],100.0,27,3,229.84337804999814,None,,,,,,,1,001,.5,1,2019_Aug_07_1221,MID,3.1.5,59.85288997679131,
LgReward,3000,0,0,0,0,0,35,35,35,,,,,,,231.44357643799594,None,3000,233.47741304299416,None,None,233.47741304299416,None,1.62,"[0.27773098099714844, 0.38358042699837824, 0.26019814999744995, 0.25041592799971113, 0.2553734120010631, 0.2550152839976363, 0.2465918150046491, 0.2763600440011942, 0.2289352349980618, 0.24017292800272116, 0.3309272190017509, 0.26651511400268646, 0.2527252040017629, 0.23252140099793905, 0.26037774599535624, 0.2647544330029632, 0.24474878200271633, 0.2411801620037295, 0.3752834980041371, 0.2910703919988009, 0.28127865200076485, 0.2612591269935365, 0.3358231290039839, 0.24740277400269406]",36,236.50075951499457,None,1,1,0.24740277400269406,236.50075951499457,None,You won $5.00!,6.000000000000001,1,28,0.37999999999999995,66.66666666666666,0.27334340987545147,[1],100.0,27,3,236.8443390609973,None,,,,,,,1,001,.5,1,2019_Aug_07_1221,MID,3.1.5,59.85288997679131,
LgPun,3000,0,0,0,0,0,36,36,36,,,,,,,238.4443083839942,None,3000,240.4780078879994,None,None,240.4780078879994,None,1.62,"[0.27773098099714844, 0.38358042699837824, 0.26019814999744995, 0.25041592799971113, 0.2553734120010631, 0.2550152839976363, 0.2465918150046491, 0.2763600440011942, 0.2289352349980618, 0.24017292800272116, 0.3309272190017509, 0.26651511400268646, 0.2527252040017629, 0.23252140099793905, 0.26037774599535624, 0.2647544330029632, 0.24474878200271633, 0.2411801620037295, 0.3752834980041371, 0.2910703919988009, 0.28127865200076485, 0.2612591269935365, 0.3358231290039839, 0.24740277400269406, 0.26113298099517124]",37,243.4917141650003,None,1,1,0.26113298099517124,243.4917141650003,None,You did not lose $5.00!,6.000000000000001,4,29,0.37999999999999995,67.56756756756756,0.2728549927202403,"[1, 1]",100.0,27,3,243.8456231589953,None,,,,,,,1,001,.5,1,2019_Aug_07_1221,MID,3.1.5,59.85288997679131,
SmallReward,4000,0,0,0,0,0,37,37,37,,,,,,,245.46197575100086,None,4000,247.4791408289966,None,None,247.4791408289966,None,1.62,"[0.27773098099714844, 0.38358042699837824, 0.26019814999744995, 0.25041592799971113, 0.2553734120010631, 0.2550152839976363, 0.2465918150046491, 0.2763600440011942, 0.2289352349980618, 0.24017292800272116, 0.3309272190017509, 0.26651511400268646, 0.2527252040017629, 0.23252140099793905, 0.26037774599535624, 0.2647544330029632, 0.24474878200271633, 0.2411801620037295, 0.3752834980041371, 0.2910703919988009, 0.28127865200076485, 0.2612591269935365, 0.3358231290039839, 0.24740277400269406, 0.26113298099517124, 0.2727639160002582]",38,251.5070310279989,None,1,1,0.2727639160002582,251.5070310279989,None,You won $0.20!,6.200000000000001,2,30,0.32999999999999996,68.42105263157895,0.2728514897694717,[],100.0,30,3,251.84606309900119,None,Adjusting RT...,,,,,,1,001,.5,1,2019_Aug_07_1221,MID,3.1.5,59.85288997679131,
Triangle,1500,0,0,0,0,0,38,38,38,,,,,,,253.44624477799516,None,1500,255.47994421199837,None,None,255.47994421199837,None,1.67,"[0.27773098099714844, 0.38358042699837824, 0.26019814999744995, 0.25041592799971113, 0.2553734120010631, 0.2550152839976363, 0.2465918150046491, 0.2763600440011942, 0.2289352349980618, 0.24017292800272116, 0.3309272190017509, 0.26651511400268646, 0.2527252040017629, 0.23252140099793905, 0.26037774599535624, 0.2647544330029632, 0.24474878200271633, 0.2411801620037295, 0.3752834980041371, 0.2910703919988009, 0.28127865200076485, 0.2612591269935365, 0.3358231290039839, 0.24740277400269406, 0.26113298099517124, 0.2727639160002582]",39,256.9797853380005,None,None,0,,256.9797853380005,None,You did not win or lose anything!,6.200000000000001,3,30,0.32999999999999996,66.66666666666666,0.2728514897694717,[],100.0,30,3,257.29655538099905,None,,,,,,,1,001,.5,1,2019_Aug_07_1221,MID,3.1.5,59.85288997679131,
SmallReward,2000,0,0,0,0,0,39,39,39,,,,,,,258.971006365995,None,2000,260.9807281819958,None,None,260.9807281819958,None,1.67,"[0.27773098099714844, 0.38358042699837824, 0.26019814999744995, 0.25041592799971113, 0.2553734120010631, 0.2550152839976363, 0.2465918150046491, 0.2763600440011942, 0.2289352349980618, 0.24017292800272116, 0.3309272190017509, 0.26651511400268646, 0.2527252040017629, 0.23252140099793905, 0.26037774599535624, 0.2647544330029632, 0.24474878200271633, 0.2411801620037295, 0.3752834980041371, 0.2910703919988009, 0.28127865200076485, 0.2612591269935365, 0.3358231290039839, 0.24740277400269406, 0.26113298099517124, 0.2727639160002582]",40,263.00807588499447,None,None,0,,263.00807588499447,None,You did not win $0.20!,6.200000000000001,2,31,0.32999999999999996,65.0,0.2728514897694717,[0],100.0,30,3,263.2977287589965,None,,,,,,,1,001,.5,1,2019_Aug_07_1221,MID,3.1.5,59.85288997679131,
SmallPun,1500,0,0,0,0,0,40,40,40,,,,,,,264.947857141,None,1500,266.9811757879943,None,None,266.9811757879943,None,1.67,"[0.27773098099714844, 0.38358042699837824, 0.26019814999744995, 0.25041592799971113, 0.2553734120010631, 0.2550152839976363, 0.2465918150046491, 0.2763600440011942, 0.2289352349980618, 0.24017292800272116, 0.3309272190017509, 0.26651511400268646, 0.2527252040017629, 0.23252140099793905, 0.26037774599535624, 0.2647544330029632, 0.24474878200271633, 0.2411801620037295, 0.3752834980041371, 0.2910703919988009, 0.28127865200076485, 0.2612591269935365, 0.3358231290039839, 0.24740277400269406, 0.26113298099517124, 0.2727639160002582]",41,268.4820967589985,None,None,0,,268.4820967589985,None,You lost $0.20!,6.000000000000001,5,32,0.32999999999999996,63.41463414634146,0.2728514897694717,"[0, 0]",100.0,30,3,268.7985739319993,None,,,,,,,1,001,.5,1,2019_Aug_07_1221,MID,3.1.5,59.85288997679131,
Triangle,3500,0,0,0,0,0,41,41,41,,,,,,,270.45140432199696,None,3500,272.48224809299427,None,None,272.48224809299427,None,1.67,"[0.27773098099714844, 0.38358042699837824, 0.26019814999744995, 0.25041592799971113, 0.2553734120010631, 0.2550152839976363, 0.2465918150046491, 0.2763600440011942, 0.2289352349980618, 0.24017292800272116, 0.3309272190017509, 0.26651511400268646, 0.2527252040017629, 0.23252140099793905, 0.26037774599535624, 0.2647544330029632, 0.24474878200271633, 0.2411801620037295, 0.3752834980041371, 0.2910703919988009, 0.28127865200076485, 0.2612591269935365, 0.3358231290039839, 0.24740277400269406, 0.26113298099517124, 0.2727639160002582, 0.2459809360007057]",42,275.9958390399988,None,1,1,0.2459809360007057,275.9958390399988,None,You did not win or lose anything!,6.000000000000001,3,32,0.32999999999999996,64.28571428571429,0.2718562840743322,"[0, 0]",100.0,30,3,276.2982954369945,None,,,,,,,1,001,.5,1,2019_Aug_07_1221,MID,3.1.5,59.85288997679131,
SmallPun,2500,0,0,0,0,0,42,42,42,,,,,,,277.94949105900014,None,2500,279.9828918689964,None,None,279.9828918689964,None,1.67,"[0.27773098099714844, 0.38358042699837824, 0.26019814999744995, 0.25041592799971113, 0.2553734120010631, 0.2550152839976363, 0.2465918150046491, 0.2763600440011942, 0.2289352349980618, 0.24017292800272116, 0.3309272190017509, 0.26651511400268646, 0.2527252040017629, 0.23252140099793905, 0.26037774599535624, 0.2647544330029632, 0.24474878200271633, 0.2411801620037295, 0.3752834980041371, 0.2910703919988009, 0.28127865200076485, 0.2612591269935365, 0.3358231290039839, 0.24740277400269406, 0.26113298099517124, 0.2727639160002582, 0.2459809360007057, 0.250811263002106]",43,282.4969407089957,None,1,1,0.250811263002106,282.4969407089957,None,You did not lose $0.20!,6.000000000000001,5,33,0.30999999999999994,65.11627906976744,0.2711046761788956,[],66.66666666666666,33,3,282.80038925400004,None,Adjusting RT...,,,,,,1,001,.5,1,2019_Aug_07_1221,MID,3.1.5,59.85288997679131,
LgReward,2000,0,0,0,0,0,43,43,43,,,,,,,284.4669989739996,None,2000,286.483630400995,None,None,286.483630400995,None,1.69,"[0.27773098099714844, 0.38358042699837824, 0.26019814999744995, 0.25041592799971113, 0.2553734120010631, 0.2550152839976363, 0.2465918150046491, 0.2763600440011942, 0.2289352349980618, 0.24017292800272116, 0.3309272190017509, 0.26651511400268646, 0.2527252040017629, 0.23252140099793905, 0.26037774599535624, 0.2647544330029632, 0.24474878200271633, 0.2411801620037295, 0.3752834980041371, 0.2910703919988009, 0.28127865200076485, 0.2612591269935365, 0.3358231290039839, 0.24740277400269406, 0.26113298099517124, 0.2727639160002582, 0.2459809360007057, 0.250811263002106]",44,288.5007303289967,None,None,0,,288.5007303289967,None,You did not win $5.00!,6.000000000000001,1,34,0.30999999999999994,63.63636363636363,0.2711046761788956,[0],66.66666666666666,33,3,288.76818848399853,None,,,,,,,1,001,.5,1,2019_Aug_07_1221,MID,3.1.5,59.85288997679131,
LgPun,2000,0,0,0,0,0,44,44,44,,,,,,,290.43457446999673,None,2000,292.4682762089942,None,None,292.4682762089942,None,1.69,"[0.27773098099714844, 0.38358042699837824, 0.26019814999744995, 0.25041592799971113, 0.2553734120010631, 0.2550152839976363, 0.2465918150046491, 0.2763600440011942, 0.2289352349980618, 0.24017292800272116, 0.3309272190017509, 0.26651511400268646, 0.2527252040017629, 0.23252140099793905, 0.26037774599535624, 0.2647544330029632, 0.24474878200271633, 0.2411801620037295, 0.3752834980041371, 0.2910703919988009, 0.28127865200076485, 0.2612591269935365, 0.3358231290039839, 0.24740277400269406, 0.26113298099517124, 0.2727639160002582, 0.2459809360007057, 0.250811263002106]",45,294.468353653996,None,None,0,,294.468353653996,None,You lost $5.00!,1.0000000000000009,4,35,0.30999999999999994,62.22222222222222,0.2711046761788956,"[0, 0]",66.66666666666666,33,3,294.751898728995,None,,,,,,,1,001,.5,1,2019_Aug_07_1221,MID,3.1.5,59.85288997679131,
SmallReward,1500,0,0,0,0,0,45,45,45,,,,,,,296.43506540999806,None,1500,298.45275112299714,None,None,298.45275112299714,None,1.69,"[0.27773098099714844, 0.38358042699837824, 0.26019814999744995, 0.25041592799971113, 0.2553734120010631, 0.2550152839976363, 0.2465918150046491, 0.2763600440011942, 0.2289352349980618, 0.24017292800272116, 0.3309272190017509, 0.26651511400268646, 0.2527252040017629, 0.23252140099793905, 0.26037774599535624, 0.2647544330029632, 0.24474878200271633, 0.2411801620037295, 0.3752834980041371, 0.2910703919988009, 0.28127865200076485, 0.2612591269935365, 0.3358231290039839, 0.24740277400269406, 0.26113298099517124, 0.2727639160002582, 0.2459809360007057, 0.250811263002106]",46,299.96926433000044,None,None,0,,299.96926433000044,None,You did not win $0.20!,1.0000000000000009,2,36,0.35999999999999993,60.86956521739131,0.2711046761788956,[],16.666666666666664,36,3,300.2359656949993,None,Adjusting RT...,,,,,,1,001,.5,1,2019_Aug_07_1221,MID,3.1.5,59.85288997679131,
SmallPun,3000,0,0,0,0,0,46,46,46,,,,,,,301.90342929799954,None,3000,303.93597455699637,None,None,303.93597455699637,None,1.6400000000000001,"[0.27773098099714844, 0.38358042699837824, 0.26019814999744995, 0.25041592799971113, 0.2553734120010631, 0.2550152839976363, 0.2465918150046491, 0.2763600440011942, 0.2289352349980618, 0.24017292800272116, 0.3309272190017509, 0.26651511400268646, 0.2527252040017629, 0.23252140099793905, 0.26037774599535624, 0.2647544330029632, 0.24474878200271633, 0.2411801620037295, 0.3752834980041371, 0.2910703919988009, 0.28127865200076485, 0.2612591269935365, 0.3358231290039839, 0.24740277400269406, 0.26113298099517124, 0.2727639160002582, 0.2459809360007057, 0.250811263002106, 0.2463859909985331]",47,306.94994297499943,None,1,1,0.2463859909985331,306.94994297499943,None,You did not lose $0.20!,1.0000000000000009,5,37,0.35999999999999993,61.702127659574465,0.27025230772440034,[1],16.666666666666664,36,3,307.2699714240007,None,,,,,,,1,001,.5,1,2019_Aug_07_1221,MID,3.1.5,59.85288997679131,
LgPun,1500,0,0,0,0,0,47,47,47,,,,,,,308.88673115399433,None,1500,310.9207172799943,None,None,310.9207172799943,None,1.6400000000000001,"[0.27773098099714844, 0.38358042699837824, 0.26019814999744995, 0.25041592799971113, 0.2553734120010631, 0.2550152839976363, 0.2465918150046491, 0.2763600440011942, 0.2289352349980618, 0.24017292800272116, 0.3309272190017509, 0.26651511400268646, 0.2527252040017629, 0.23252140099793905, 0.26037774599535624, 0.2647544330029632, 0.24474878200271633, 0.2411801620037295, 0.3752834980041371, 0.2910703919988009, 0.28127865200076485, 0.2612591269935365, 0.3358231290039839, 0.24740277400269406, 0.26113298099517124, 0.2727639160002582, 0.2459809360007057, 0.250811263002106, 0.2463859909985331]",48,312.4207340099965,None,None,0,,312.4207340099965,None,You lost $5.00!,-3.999999999999999,4,38,0.35999999999999993,60.416666666666664,0.27025230772440034,"[1, 0]",16.666666666666664,36,3,312.75425670099503,None,,,,,,,1,001,.5,1,2019_Aug_07_1221,MID,3.1.5,59.85288997679131,
LgReward,2000,0,0,0,0,0,48,48,48,,,,,,,314.40321664699877,None,2000,316.4050146169975,None,None,316.4050146169975,None,1.6400000000000001,"[0.27773098099714844, 0.38358042699837824, 0.26019814999744995, 0.25041592799971113, 0.2553734120010631, 0.2550152839976363, 0.2465918150046491, 0.2763600440011942, 0.2289352349980618, 0.24017292800272116, 0.3309272190017509, 0.26651511400268646, 0.2527252040017629, 0.23252140099793905, 0.26037774599535624, 0.2647544330029632, 0.24474878200271633, 0.2411801620037295, 0.3752834980041371, 0.2910703919988009, 0.28127865200076485, 0.2612591269935365, 0.3358231290039839, 0.24740277400269406, 0.26113298099517124, 0.2727639160002582, 0.2459809360007057, 0.250811263002106, 0.2463859909985331, 0.2493095199970412]",49,318.4289703749964,None,1,1,0.2493095199970412,318.4289703749964,None,You won $5.00!,1.0000000000000009,1,39,0.3999999999999999,61.224489795918366,0.269554214800155,[],33.33333333333333,39,3,318.73841240299953,None,Adjusting RT...,,,,,,1,001,.5,1,2019_Aug_07_1221,MID,3.1.5,59.85288997679131,
LgReward,1500,0,0,0,0,0,49,49,49,,,,,,,320.372414958998,None,1500,322.3892133059999,None,None,322.3892133059999,None,1.6,"[0.27773098099714844, 0.38358042699837824, 0.26019814999744995, 0.25041592799971113, 0.2553734120010631, 0.2550152839976363, 0.2465918150046491, 0.2763600440011942, 0.2289352349980618, 0.24017292800272116, 0.3309272190017509, 0.26651511400268646, 0.2527252040017629, 0.23252140099793905, 0.26037774599535624, 0.2647544330029632, 0.24474878200271633, 0.2411801620037295, 0.3752834980041371, 0.2910703919988009, 0.28127865200076485, 0.2612591269935365, 0.3358231290039839, 0.24740277400269406, 0.26113298099517124, 0.2727639160002582, 0.2459809360007057, 0.250811263002106, 0.2463859909985331, 0.2493095199970412]",50,323.9059946790003,None,None,0,,323.9059946790003,None,You did not win $5.00!,1.0000000000000009,1,40,0.3999999999999999,60.0,0.269554214800155,[0],33.33333333333333,39,3,324.27256512999884,None,,,,,,,1,001,.5,1,2019_Aug_07_1221,MID,3.1.5,59.85288997679131,
,,0,0,0,0,,,,,,,,,,,,,,,,,,,,,,,,,,,,,,,,,,,,,,,,,,,,,,,,1,001,.5,1,2019_Aug_07_1221,MID,3.1.5,59.85288997679131,
,,,,,,,,,,,,,,,,,,,,,,,,,,,,,,,,,,,,,,,,,,,,,,,,,325.8568212280006,None,330.85754050899413,None,,,,,,,,,
