Condition,FixationDur,runs.thisRepN,runs.thisTrialN,runs.thisN,runs.thisIndex,trials.thisRepN,trials.thisTrialN,trials.thisN,trials.thisIndex,instructFig.started,instructFig.stopped,text_2.started,text_2.stopped,PrepFixation.started,PrepFixation.stopped,TrialOrder,cueImage.started,cueImage.stopped,FixationDur,fixation.started,fixation.stopped,fixationResp.keys,fixationResp.started,fixationResp.stopped,feedbackDur,rt_list,Trial counter,Target.started,Target.stopped,probeResp.keys,probeResp.corr,probeResp.started,probeResp.stopped,msg,TrackEarnings,TrialType,NonNeutralTrialsNum,probeDur,percentacc_total,meanrt,UserAcc,Acc,AdjTrial,AdjTrialInc,feedbackMsg.started,feedbackMsg.stopped,probeResp.rt,AdjRTmsg,fixationResp.rt,polygon.started,polygon.stopped,text.started,text.stopped,participant,prac_or_scan,practiceRT,date,expName,psychopyVersion,frameRate,
SmallPun,2000,0,0,0,0,0,0,0,0,8.826251741003944,None,9.963710017000267,None,10.380569465000008,None,TimeVersion5.csv,12.388440542999888,None,2000,14.397491805000755,None,None,14.397491805000755,None,1.65,[],1,16.397406475000025,None,None,0,16.397406475000025,None,You lost $0.20!,-0.2,5,1,0.35,0.0,nan,[0],0,0,3,16.73229427500337,None,,,,,,,,1,Scanner,0.35,2019_Aug_14_1139,MID,3.1.5,59.9010861757641,
LgReward,4000,0,0,0,0,0,1,1,1,,,,,,,,18.405398620001506,None,4000,20.398349071001576,None,None,20.398349071001576,None,1.65,[],2,24.42446167900198,None,None,0,24.42446167900198,None,You did not win $5.00!,-0.2,1,2,0.35,0.0,nan,"[0, 0]",0,0,3,24.732737379003083,None,,,,,,,,1,Scanner,0.35,2019_Aug_14_1139,MID,3.1.5,59.9010861757641,
SmallPun,3000,0,0,0,0,0,2,2,2,,,,,,,,26.36594818499725,None,3000,28.399094997002976,None,None,28.399094997002976,None,1.65,[0.2542431369947735],3,31.412569555002847,None,1,1,31.412569555002847,None,You did not lose $0.20!,-0.2,5,3,0.38999999999999996,33.33333333333333,0.2542431369947735,[],33.33333333333333,3,3,31.733109401000547,None,0.2542431369947735,Adjusting RT...,,,,,,1,Scanner,0.35,2019_Aug_14_1139,MID,3.1.5,59.9010861757641,
SmallReward,2000,0,0,0,0,0,3,3,3,,,,,,,,33.38385655899765,None,2000,35.40036851300101,None,None,35.40036851300101,None,1.61,"[0.2542431369947735, 0.2521261920046527]",4,37.417041649001476,None,1,1,37.417041649001476,None,You won $0.20!,0.0,2,4,0.38999999999999996,50.0,0.2531846644997131,[1],33.33333333333333,3,3,37.751129864001996,None,0.2521261920046527,,,,,,,1,Scanner,0.35,2019_Aug_14_1139,MID,3.1.5,59.9010861757641,
LgPun,2000,0,0,0,0,0,4,4,4,,,,,,,,39.35005258399906,None,2000,41.3846189169999,None,None,41.3846189169999,None,1.61,"[0.2542431369947735, 0.2521261920046527, 0.2278964819997782]",5,43.384848526002315,None,1,1,43.384848526002315,None,You did not lose $5.00!,0.0,4,5,0.38999999999999996,60.0,0.24475527033306813,"[1, 1]",33.33333333333333,3,3,43.73495233699941,None,0.2278964819997782,,,,,,,1,Scanner,0.35,2019_Aug_14_1139,MID,3.1.5,59.9010861757641,
Triangle,2500,0,0,0,0,0,5,5,5,,,,,,,,45.33701187300176,None,2500,47.36880572699738,None,None,47.36880572699738,None,1.61,"[0.2542431369947735, 0.2521261920046527, 0.2278964819997782, 0.028245911998965312]",6,49.88412175400299,None,1,1,49.88412175400299,None,You did not win or lose anything!,0.0,3,5,0.38999999999999996,66.66666666666666,0.19062793074954243,"[1, 1]",33.33333333333333,3,3,50.235832997001125,None,0.028245911998965312,,,,,,,1,Scanner,0.35,2019_Aug_14_1139,MID,3.1.5,59.9010861757641,
SmallReward,2500,0,0,0,0,0,6,6,6,,,,,,,,51.83601583699783,None,2500,53.852959474003,None,None,53.852959474003,None,1.61,"[0.2542431369947735, 0.2521261920046527, 0.2278964819997782, 0.028245911998965312, 0.24655221500142943]",7,56.37974836600188,None,1,1,56.37974836600188,None,You won $0.20!,0.2,2,6,0.36999999999999994,71.42857142857143,0.20181278759991983,[],66.66666666666666,6,3,56.72014955699706,None,0.24655221500142943,Adjusting RT...,,,,,,1,Scanner,0.35,2019_Aug_14_1139,MID,3.1.5,59.9010861757641,
SmallReward,1500,0,0,0,0,0,7,7,7,,,,,,,,58.32003471400094,None,1500,60.337053224000556,None,None,60.337053224000556,None,1.6300000000000001,"[0.2542431369947735, 0.2521261920046527, 0.2278964819997782, 0.028245911998965312, 0.24655221500142943, 0.2810867330044857]",8,61.85412544100109,None,1,1,61.85412544100109,None,You won $0.20!,0.4,2,7,0.36999999999999994,75.0,0.21502511183401415,[1],66.66666666666666,6,3,62.17021672500414,None,0.2810867330044857,,,,,,,1,Scanner,0.35,2019_Aug_14_1139,MID,3.1.5,59.9010861757641,
LgReward,1500,0,0,0,0,0,8,8,8,,,,,,,,63.82653905099869,None,1500,65.83760973600147,None,None,65.83760973600147,None,1.6300000000000001,"[0.2542431369947735, 0.2521261920046527, 0.2278964819997782, 0.028245911998965312, 0.24655221500142943, 0.2810867330044857, 0.24129695699957665]",9,67.36442371900193,None,1,1,67.36442371900193,None,You won $5.00!,5.4,1,8,0.36999999999999994,77.77777777777779,0.21877823257195164,"[1, 1]",66.66666666666666,6,3,67.67198502000247,None,0.24129695699957665,,,,,,,1,Scanner,0.35,2019_Aug_14_1139,MID,3.1.5,59.9010861757641,
SmallPun,2000,0,0,0,0,0,9,9,9,,,,,,,,69.30649057000119,None,2000,71.33871015199838,None,None,71.33871015199838,None,1.6300000000000001,"[0.2542431369947735, 0.2521261920046527, 0.2278964819997782, 0.028245911998965312, 0.24655221500142943, 0.2810867330044857, 0.24129695699957665, 0.24258045100577874]",10,73.35204864499974,None,1,1,73.35204864499974,None,You did not lose $0.20!,5.4,5,9,0.31999999999999995,80.0,0.22175350987618003,[],100.0,9,3,73.67217126600008,None,0.24258045100577874,Adjusting RT...,,,,,,1,Scanner,0.35,2019_Aug_14_1139,MID,3.1.5,59.9010861757641,
LgReward,2500,0,0,0,0,0,10,10,10,,,,,,,,75.32180113199865,None,2500,77.34613801399973,None,None,77.34613801399973,None,1.6800000000000002,"[0.2542431369947735, 0.2521261920046527, 0.2278964819997782, 0.028245911998965312, 0.24655221500142943, 0.2810867330044857, 0.24129695699957665, 0.24258045100577874]",11,79.86574241700146,None,None,0,79.86574241700146,None,You did not win $5.00!,5.4,1,10,0.31999999999999995,72.72727272727273,0.22175350987618003,[0],100.0,9,3,80.14065411400225,None,,,,,,,,1,Scanner,0.35,2019_Aug_14_1139,MID,3.1.5,59.9010861757641,
LgPun,3500,0,0,0,0,0,11,11,11,,,,,,,,81.8078188569998,None,3500,83.84056794999924,None,None,83.84056794999924,None,1.6800000000000002,"[0.2542431369947735, 0.2521261920046527, 0.2278964819997782, 0.028245911998965312, 0.24655221500142943, 0.2810867330044857, 0.24129695699957665, 0.24258045100577874]",12,87.35389455399854,None,None,0,87.35389455399854,None,You lost $5.00!,0.40000000000000036,4,11,0.31999999999999995,66.66666666666666,0.22175350987618003,"[0, 0]",100.0,9,3,87.64111990299716,None,,,,,,,,1,Scanner,0.35,2019_Aug_14_1139,MID,3.1.5,59.9010861757641,
SmallPun,3500,0,0,0,0,0,12,12,12,,,,,,,,89.30917918000341,None,3500,91.34116729500238,None,1,91.34116729500238,None,1.6800000000000002,"[0.2542431369947735, 0.2521261920046527, 0.2278964819997782, 0.028245911998965312, 0.24655221500142943, 0.2810867330044857, 0.24129695699957665, 0.24258045100577874]",13,94.85466358299891,None,None,0,94.85466358299891,None,You lost $0.20!,0.20000000000000034,5,12,0.33999999999999997,61.53846153846154,0.22175350987618003,[],50.0,12,3,95.14188943299814,None,,Adjusting RT...,3.251613535998331,,,,,1,Scanner,0.35,2019_Aug_14_1139,MID,3.1.5,59.9010861757641,
Triangle,1500,0,0,0,0,0,13,13,13,,,,,,,,96.80825231799827,None,1500,98.84228996700404,None,None,98.84228996700404,None,1.6600000000000001,"[0.2542431369947735, 0.2521261920046527, 0.2278964819997782, 0.028245911998965312, 0.24655221500142943, 0.2810867330044857, 0.24129695699957665, 0.24258045100577874]",14,100.3416507189977,None,None,0,100.3416507189977,None,You did not win or lose anything!,0.20000000000000034,3,12,0.33999999999999997,57.14285714285714,0.22175350987618003,[],50.0,12,3,100.65916265799751,None,,,,,,,,1,Scanner,0.35,2019_Aug_14_1139,MID,3.1.5,59.9010861757641,
LgPun,4000,0,0,0,0,0,14,14,14,,,,,,,,102.29418164699746,None,4000,104.32605136500206,None,1,104.32605136500206,None,1.6600000000000001,"[0.2542431369947735, 0.2521261920046527, 0.2278964819997782, 0.028245911998965312, 0.24655221500142943, 0.2810867330044857, 0.24129695699957665, 0.24258045100577874]",15,108.33962261400302,None,None,0,108.33962261400302,None,You lost $5.00!,-4.8,4,13,0.33999999999999997,53.333333333333336,0.22175350987618003,[0],50.0,12,3,108.62667987000168,None,,,2.6697712050008704,,,,,1,Scanner,0.35,2019_Aug_14_1139,MID,3.1.5,59.9010861757641,
Triangle,4000,0,0,0,0,0,15,15,15,,,,,,,,110.27820219300338,None,4000,112.31034624300082,None,None,112.31034624300082,None,1.6600000000000001,"[0.2542431369947735, 0.2521261920046527, 0.2278964819997782, 0.028245911998965312, 0.24655221500142943, 0.2810867330044857, 0.24129695699957665, 0.24258045100577874]",16,116.32387367200135,None,None,0,116.32387367200135,None,You did not win or lose anything!,-4.8,3,13,0.33999999999999997,50.0,0.22175350987618003,[0],50.0,12,3,116.62772820499958,None,,,,,,,,1,Scanner,0.35,2019_Aug_14_1139,MID,3.1.5,59.9010861757641,
LgPun,3000,0,0,0,0,0,16,16,16,,,,,,,,118.26157890600007,None,3000,120.2943690739994,None,None,120.2943690739994,None,1.6600000000000001,"[0.2542431369947735, 0.2521261920046527, 0.2278964819997782, 0.028245911998965312, 0.24655221500142943, 0.2810867330044857, 0.24129695699957665, 0.24258045100577874, 0.13636809099989478]",17,123.30836680500215,None,1,1,123.30836680500215,None,You did not lose $5.00!,-4.8,4,14,0.33999999999999997,52.94117647058824,0.21226624111214834,"[0, 1]",50.0,12,3,123.59490928400191,None,0.13636809099989478,,,,,,,1,Scanner,0.35,2019_Aug_14_1139,MID,3.1.5,59.9010861757641,
SmallPun,1500,0,0,0,0,0,17,17,17,,,,,,,,125.24467258700315,None,1500,127.27951842299808,None,None,127.27951842299808,None,1.6600000000000001,"[0.2542431369947735, 0.2521261920046527, 0.2278964819997782, 0.028245911998965312, 0.24655221500142943, 0.2810867330044857, 0.24129695699957665, 0.24258045100577874, 0.13636809099989478]",18,128.77907688800042,None,None,0,128.77907688800042,None,You lost $0.20!,-5.0,5,15,0.38999999999999996,50.0,0.21226624111214834,[],16.666666666666664,15,3,129.09626463200402,None,,Adjusting RT...,,,,,,1,Scanner,0.35,2019_Aug_14_1139,MID,3.1.5,59.9010861757641,
LgReward,2000,0,0,0,0,0,18,18,18,,,,,,,,130.7693863759996,None,2000,132.78024325399747,None,None,132.78024325399747,None,1.61,"[0.2542431369947735, 0.2521261920046527, 0.2278964819997782, 0.028245911998965312, 0.24655221500142943, 0.2810867330044857, 0.24129695699957665, 0.24258045100577874, 0.13636809099989478, 0.2802276790025644]",19,134.79717070100014,None,1,1,134.79717070100014,None,You won $5.00!,0.0,1,16,0.38999999999999996,52.63157894736842,0.21906238490118995,[1],16.666666666666664,15,3,135.1290211989981,None,0.2802276790025644,,,,,,,1,Scanner,0.35,2019_Aug_14_1139,MID,3.1.5,59.9010861757641,
SmallPun,4000,0,0,0,0,0,19,19,19,,,,,,,,136.72967533300107,None,4000,138.76387668799725,None,None,138.76387668799725,None,1.61,"[0.2542431369947735, 0.2521261920046527, 0.2278964819997782, 0.028245911998965312, 0.24655221500142943, 0.2810867330044857, 0.24129695699957665, 0.24258045100577874, 0.13636809099989478, 0.2802276790025644, 0.24199843099631835]",20,142.77747443300177,None,1,1,142.77747443300177,None,You did not lose $0.20!,0.0,5,17,0.38999999999999996,55.00000000000001,0.22114748000074708,"[1, 1]",16.666666666666664,15,3,143.13227909799753,None,0.24199843099631835,,,,,,,1,Scanner,0.35,2019_Aug_14_1139,MID,3.1.5,59.9010861757641,
SmallReward,1500,0,0,0,0,0,20,20,20,,,,,,,,144.73153537200415,None,1500,146.74805539999943,None,None,146.74805539999943,None,1.61,"[0.2542431369947735, 0.2521261920046527, 0.2278964819997782, 0.028245911998965312, 0.24655221500142943, 0.2810867330044857, 0.24129695699957665, 0.24258045100577874, 0.13636809099989478, 0.2802276790025644, 0.24199843099631835]",21,148.2754606870003,None,None,0,148.2754606870003,None,You did not win $0.20!,0.0,2,18,0.41,52.38095238095239,0.22114748000074708,[],49.99999999999999,18,3,148.61499839099997,None,,Adjusting RT...,,,,,,1,Scanner,0.35,2019_Aug_14_1139,MID,3.1.5,59.9010861757641,
LgPun,1500,0,0,0,0,0,21,21,21,,,,,,,,150.19853585799865,None,1500,152.23259244699875,None,None,152.23259244699875,None,1.59,"[0.2542431369947735, 0.2521261920046527, 0.2278964819997782, 0.028245911998965312, 0.24655221500142943, 0.2810867330044857, 0.24129695699957665, 0.24258045100577874, 0.13636809099989478, 0.2802276790025644, 0.24199843099631835]",22,153.73236952300067,None,None,0,153.73236952300067,None,You lost $5.00!,-5.0,4,19,0.41,50.0,0.22114748000074708,[0],49.99999999999999,18,3,154.09842135300278,None,,,,,,,,1,Scanner,0.35,2019_Aug_14_1139,MID,3.1.5,59.9010861757641,
LgReward,3500,0,0,0,0,0,22,22,22,,,,,,,,155.70537645900185,None,3500,157.71605945299962,None,None,157.71605945299962,None,1.59,"[0.2542431369947735, 0.2521261920046527, 0.2278964819997782, 0.028245911998965312, 0.24655221500142943, 0.2810867330044857, 0.24129695699957665, 0.24258045100577874, 0.13636809099989478, 0.2802276790025644, 0.24199843099631835, 0.2582734710013028]",23,161.24249450200296,None,1,1,161.24249450200296,None,You won $5.00!,0.0,1,20,0.41,52.17391304347826,0.22424131258412672,"[0, 1]",49.99999999999999,18,3,161.58381146100146,None,0.2582734710013028,,,,,,,1,Scanner,0.35,2019_Aug_14_1139,MID,3.1.5,59.9010861757641,
SmallReward,4000,0,0,0,0,0,23,23,23,,,,,,,,163.19065099600266,None,4000,165.20037694599887,None,1,165.20037694599887,None,1.59,"[0.2542431369947735, 0.2521261920046527, 0.2278964819997782, 0.028245911998965312, 0.24655221500142943, 0.2810867330044857, 0.24129695699957665, 0.24258045100577874, 0.13636809099989478, 0.2802276790025644, 0.24199843099631835, 0.2582734710013028]",24,169.23061930000404,None,None,0,169.23061930000404,None,You did not win $0.20!,0.0,2,21,0.43,50.0,0.22424131258412672,[],49.99999999999999,21,3,169.58563083800254,None,,Adjusting RT...,3.348067571998399,,,,,1,Scanner,0.35,2019_Aug_14_1139,MID,3.1.5,59.9010861757641,
Triangle,2000,0,0,0,0,0,24,24,24,,,,,,,,171.15306182100176,None,2000,173.18498277300387,None,None,173.18498277300387,None,1.57,"[0.2542431369947735, 0.2521261920046527, 0.2278964819997782, 0.028245911998965312, 0.24655221500142943, 0.2810867330044857, 0.24129695699957665, 0.24258045100577874, 0.13636809099989478, 0.2802276790025644, 0.24199843099631835, 0.2582734710013028]",25,175.19881249299942,None,None,0,175.19881249299942,None,You did not win or lose anything!,0.0,3,21,0.43,48.0,0.22424131258412672,[],49.99999999999999,21,3,175.6023529189988,None,,,,,,,,1,Scanner,0.35,2019_Aug_14_1139,MID,3.1.5,59.9010861757641,
LgPun,2000,0,0,0,0,0,25,25,25,,,,,,,,177.15206372000102,None,2000,179.18619811799726,None,None,179.18619811799726,None,1.57,"[0.2542431369947735, 0.2521261920046527, 0.2278964819997782, 0.028245911998965312, 0.24655221500142943, 0.2810867330044857, 0.24129695699957665, 0.24258045100577874, 0.13636809099989478, 0.2802276790025644, 0.24199843099631835, 0.2582734710013028, 0.23398807900230167]",26,181.18648410300375,None,1,1,181.18648410300375,None,You did not lose $5.00!,0.0,4,22,0.43,50.0,0.22499106384706324,[1],49.99999999999999,21,3,181.58531192199735,None,0.23398807900230167,,,,,,,1,Scanner,0.35,2019_Aug_14_1139,MID,3.1.5,59.9010861757641,
SmallReward,2000,0,0,0,0,0,26,26,26,,,,,,,,183.1712807849981,None,2000,185.18663666900102,None,None,185.18663666900102,None,1.57,"[0.2542431369947735, 0.2521261920046527, 0.2278964819997782, 0.028245911998965312, 0.24655221500142943, 0.2810867330044857, 0.24129695699957665, 0.24258045100577874, 0.13636809099989478, 0.2802276790025644, 0.24199843099631835, 0.2582734710013028, 0.23398807900230167, 0.23995493500115117]",27,187.2366389059971,None,1,1,187.2366389059971,None,You won $0.20!,0.2,2,23,0.43,51.85185185185185,0.22605991178664095,"[1, 1]",49.99999999999999,21,3,187.58625047300302,None,0.23995493500115117,,,,,,,1,Scanner,0.35,2019_Aug_14_1139,MID,3.1.5,59.9010861757641,
Triangle,3000,0,0,0,0,0,27,27,27,,,,,,,,189.15341506500408,None,3000,191.18739214800007,None,None,191.18739214800007,None,1.57,"[0.2542431369947735, 0.2521261920046527, 0.2278964819997782, 0.028245911998965312, 0.24655221500142943, 0.2810867330044857, 0.24129695699957665, 0.24258045100577874, 0.13636809099989478, 0.2802276790025644, 0.24199843099631835, 0.2582734710013028, 0.23398807900230167, 0.23995493500115117, 0.3234939550020499]",28,194.20109496000077,None,1,1,194.20109496000077,None,You did not win or lose anything!,0.2,3,23,0.43,53.57142857142857,0.23255551466766822,"[1, 1]",49.99999999999999,21,3,194.58684353400167,None,0.3234939550020499,,,,,,,1,Scanner,0.35,2019_Aug_14_1139,MID,3.1.5,59.9010861757641,
SmallReward,3500,0,0,0,0,0,28,28,28,,,,,,,,196.17836013600026,None,3500,198.1885513390007,None,None,198.1885513390007,None,1.57,"[0.2542431369947735, 0.2521261920046527, 0.2278964819997782, 0.028245911998965312, 0.24655221500142943, 0.2810867330044857, 0.24129695699957665, 0.24258045100577874, 0.13636809099989478, 0.2802276790025644, 0.24199843099631835, 0.2582734710013028, 0.23398807900230167, 0.23995493500115117, 0.3234939550020499, 0.28956394200213253]",29,201.70684690099733,None,1,1,201.70684690099733,None,You won $0.20!,0.4,2,24,0.41,55.172413793103445,0.23611854137607224,[],66.66666666666666,24,3,202.08863621300407,None,0.28956394200213253,Adjusting RT...,,,,,,1,Scanner,0.35,2019_Aug_14_1139,MID,3.1.5,59.9010861757641,
Triangle,1500,0,0,0,0,0,29,29,29,,,,,,,,203.65562335600407,None,1500,205.6890695080001,None,None,205.6890695080001,None,1.59,"[0.2542431369947735, 0.2521261920046527, 0.2278964819997782, 0.028245911998965312, 0.24655221500142943, 0.2810867330044857, 0.24129695699957665, 0.24258045100577874, 0.13636809099989478, 0.2802276790025644, 0.24199843099631835, 0.2582734710013028, 0.23398807900230167, 0.23995493500115117, 0.3234939550020499, 0.28956394200213253]",30,207.20294858499983,None,None,0,207.20294858499983,None,You did not win or lose anything!,0.4,3,24,0.41,53.333333333333336,0.23611854137607224,[],66.66666666666666,24,3,207.5733326979971,None,,,,,,,,1,Scanner,0.35,2019_Aug_14_1139,MID,3.1.5,59.9010861757641,
SmallReward,1500,0,0,0,0,0,30,30,30,,,,,,,,209.1565371309989,None,1500,211.1738470880009,None,None,211.1738470880009,None,1.59,"[0.2542431369947735, 0.2521261920046527, 0.2278964819997782, 0.028245911998965312, 0.24655221500142943, 0.2810867330044857, 0.24129695699957665, 0.24258045100577874, 0.13636809099989478, 0.2802276790025644, 0.24199843099631835, 0.2582734710013028, 0.23398807900230167, 0.23995493500115117, 0.3234939550020499, 0.28956394200213253, 0.24181299500196474]",31,212.6907275679987,None,1,1,212.6907275679987,None,You won $0.20!,0.6000000000000001,2,25,0.41,54.83870967741935,0.23645350923641886,[1],66.66666666666666,24,3,213.0402748560009,None,0.24181299500196474,,,,,,,1,Scanner,0.35,2019_Aug_14_1139,MID,3.1.5,59.9010861757641,
Triangle,2000,0,0,0,0,0,31,31,31,,,,,,,,214.62576692899893,None,2000,216.65723391400388,None,None,216.65723391400388,None,1.59,"[0.2542431369947735, 0.2521261920046527, 0.2278964819997782, 0.028245911998965312, 0.24655221500142943, 0.2810867330044857, 0.24129695699957665, 0.24258045100577874, 0.13636809099989478, 0.2802276790025644, 0.24199843099631835, 0.2582734710013028, 0.23398807900230167, 0.23995493500115117, 0.3234939550020499, 0.28956394200213253, 0.24181299500196474]",32,218.6708017100027,None,None,0,218.6708017100027,None,You did not win or lose anything!,0.6000000000000001,3,25,0.41,53.125,0.23645350923641886,[1],66.66666666666666,24,3,219.04101091399934,None,,,,,,,,1,Scanner,0.35,2019_Aug_14_1139,MID,3.1.5,59.9010861757641,
LgPun,1500,0,0,0,0,0,32,32,32,,,,,,,,220.60777648100338,None,1500,222.64205165800377,None,None,222.64205165800377,None,1.59,"[0.2542431369947735, 0.2521261920046527, 0.2278964819997782, 0.028245911998965312, 0.24655221500142943, 0.2810867330044857, 0.24129695699957665, 0.24258045100577874, 0.13636809099989478, 0.2802276790025644, 0.24199843099631835, 0.2582734710013028, 0.23398807900230167, 0.23995493500115117, 0.3234939550020499, 0.28956394200213253, 0.24181299500196474, 0.30217760000232374]",33,224.14239588400233,None,1,1,224.14239588400233,None,You did not lose $5.00!,0.6000000000000001,4,26,0.41,54.54545454545454,0.24010484761230247,"[1, 1]",66.66666666666666,24,3,224.5072823590017,None,0.30217760000232374,,,,,,,1,Scanner,0.35,2019_Aug_14_1139,MID,3.1.5,59.9010861757641,
Triangle,3500,0,0,0,0,0,33,33,33,,,,,,,,226.09343715300201,None,3500,228.12568479400215,None,None,228.12568479400215,None,1.59,"[0.2542431369947735, 0.2521261920046527, 0.2278964819997782, 0.028245911998965312, 0.24655221500142943, 0.2810867330044857, 0.24129695699957665, 0.24258045100577874, 0.13636809099989478, 0.2802276790025644, 0.24199843099631835, 0.2582734710013028, 0.23398807900230167, 0.23995493500115117, 0.3234939550020499, 0.28956394200213253, 0.24181299500196474, 0.30217760000232374]",34,231.63928521100024,None,None,0,231.63928521100024,None,You did not win or lose anything!,0.6000000000000001,3,26,0.41,52.94117647058824,0.24010484761230247,"[1, 1]",66.66666666666666,24,3,232.01065123599983,None,,,,,,,,1,Scanner,0.35,2019_Aug_14_1139,MID,3.1.5,59.9010861757641,
LgPun,1500,0,0,0,0,0,34,34,34,,,,,,,,233.5788551259975,None,1500,235.6102147700003,None,None,235.6102147700003,None,1.59,"[0.2542431369947735, 0.2521261920046527, 0.2278964819997782, 0.028245911998965312, 0.24655221500142943, 0.2810867330044857, 0.24129695699957665, 0.24258045100577874, 0.13636809099989478, 0.2802276790025644, 0.24199843099631835, 0.2582734710013028, 0.23398807900230167, 0.23995493500115117, 0.3234939550020499, 0.28956394200213253, 0.24181299500196474, 0.30217760000232374, 0.2379019639993203]",35,237.11066014500102,None,1,1,237.11066014500102,None,You did not lose $5.00!,0.6000000000000001,4,27,0.36,54.285714285714285,0.23998890636951392,[],100.0,27,3,237.4767521219983,None,0.2379019639993203,Adjusting RT...,,,,,,1,Scanner,0.35,2019_Aug_14_1139,MID,3.1.5,59.9010861757641,
Triangle,1500,0,0,0,0,0,35,35,35,,,,,,,,239.06004242700146,None,1500,241.0941208380027,None,None,241.0941208380027,None,1.6400000000000001,"[0.2542431369947735, 0.2521261920046527, 0.2278964819997782, 0.028245911998965312, 0.24655221500142943, 0.2810867330044857, 0.24129695699957665, 0.24258045100577874, 0.13636809099989478, 0.2802276790025644, 0.24199843099631835, 0.2582734710013028, 0.23398807900230167, 0.23995493500115117, 0.3234939550020499, 0.28956394200213253, 0.24181299500196474, 0.30217760000232374, 0.2379019639993203, 0.2749131730015506]",36,242.5935580410005,None,1,1,242.5935580410005,None,You did not win or lose anything!,0.6000000000000001,3,27,0.36,55.55555555555556,0.24173511970111577,[],100.0,27,3,242.92756894200284,None,0.2749131730015506,,,,,,,1,Scanner,0.35,2019_Aug_14_1139,MID,3.1.5,59.9010861757641,
SmallPun,1500,0,0,0,0,0,36,36,36,,,,,,,,244.54609142299887,None,1500,246.57857853300084,None,None,246.57857853300084,None,1.6400000000000001,"[0.2542431369947735, 0.2521261920046527, 0.2278964819997782, 0.028245911998965312, 0.24655221500142943, 0.2810867330044857, 0.24129695699957665, 0.24258045100577874, 0.13636809099989478, 0.2802276790025644, 0.24199843099631835, 0.2582734710013028, 0.23398807900230167, 0.23995493500115117, 0.3234939550020499, 0.28956394200213253, 0.24181299500196474, 0.30217760000232374, 0.2379019639993203, 0.2749131730015506, 0.22509866500331555]",37,248.09146361400053,None,1,1,248.09146361400053,None,You did not lose $0.20!,0.6000000000000001,5,28,0.36,56.75675675675676,0.24094290757264908,[1],100.0,27,3,248.41260951000004,None,0.22509866500331555,,,,,,,1,Scanner,0.35,2019_Aug_14_1139,MID,3.1.5,59.9010861757641,
LgReward,1500,0,0,0,0,0,37,37,37,,,,,,,,250.05347913999867,None,1500,252.06219799999963,None,None,252.06219799999963,None,1.6400000000000001,"[0.2542431369947735, 0.2521261920046527, 0.2278964819997782, 0.028245911998965312, 0.24655221500142943, 0.2810867330044857, 0.24129695699957665, 0.24258045100577874, 0.13636809099989478, 0.2802276790025644, 0.24199843099631835, 0.2582734710013028, 0.23398807900230167, 0.23995493500115117, 0.3234939550020499, 0.28956394200213253, 0.24181299500196474, 0.30217760000232374, 0.2379019639993203, 0.2749131730015506, 0.22509866500331555, 0.22097308899537893]",38,253.59161376499833,None,1,1,253.59161376499833,None,You won $5.00!,5.6,1,29,0.36,57.89473684210527,0.24003518854640954,"[1, 1]",100.0,27,3,253.8960686950013,None,0.22097308899537893,,,,,,,1,Scanner,0.35,2019_Aug_14_1139,MID,3.1.5,59.9010861757641,
Triangle,1500,0,0,0,0,0,38,38,38,,,,,,,,255.53090343299846,None,1500,257.56262199800403,None,None,257.56262199800403,None,1.6400000000000001,"[0.2542431369947735, 0.2521261920046527, 0.2278964819997782, 0.028245911998965312, 0.24655221500142943, 0.2810867330044857, 0.24129695699957665, 0.24258045100577874, 0.13636809099989478, 0.2802276790025644, 0.24199843099631835, 0.2582734710013028, 0.23398807900230167, 0.23995493500115117, 0.3234939550020499, 0.28956394200213253, 0.24181299500196474, 0.30217760000232374, 0.2379019639993203, 0.2749131730015506, 0.22509866500331555, 0.22097308899537893]",39,259.0770481110012,None,None,0,259.0770481110012,None,You did not win or lose anything!,5.6,3,29,0.36,56.41025641025641,0.24003518854640954,"[1, 1]",100.0,27,3,259.3961294740002,None,,,,,,,,1,Scanner,0.35,2019_Aug_14_1139,MID,3.1.5,59.9010861757641,
LgReward,2000,0,0,0,0,0,39,39,39,,,,,,,,261.03709069499746,None,2000,263.04612952200114,None,None,263.04612952200114,None,1.6400000000000001,"[0.2542431369947735, 0.2521261920046527, 0.2278964819997782, 0.028245911998965312, 0.24655221500142943, 0.2810867330044857, 0.24129695699957665, 0.24258045100577874, 0.13636809099989478, 0.2802276790025644, 0.24199843099631835, 0.2582734710013028, 0.23398807900230167, 0.23995493500115117, 0.3234939550020499, 0.28956394200213253, 0.24181299500196474, 0.30217760000232374, 0.2379019639993203, 0.2749131730015506, 0.22509866500331555, 0.22097308899537893, 0.2001992059958866]",40,265.07633327000076,None,1,1,265.07633327000076,None,You won $5.00!,10.6,1,30,0.31,57.49999999999999,0.23830318930508246,[],100.0,30,3,265.3639045259988,None,0.2001992059958866,Adjusting RT...,,,,,,1,Scanner,0.35,2019_Aug_14_1139,MID,3.1.5,59.9010861757641,
LgPun,2500,0,0,0,0,0,40,40,40,,,,,,,,266.9985615370024,None,2500,269.0311517329974,None,None,269.0311517329974,None,1.69,"[0.2542431369947735, 0.2521261920046527, 0.2278964819997782, 0.028245911998965312, 0.24655221500142943, 0.2810867330044857, 0.24129695699957665, 0.24258045100577874, 0.13636809099989478, 0.2802276790025644, 0.24199843099631835, 0.2582734710013028, 0.23398807900230167, 0.23995493500115117, 0.3234939550020499, 0.28956394200213253, 0.24181299500196474, 0.30217760000232374, 0.2379019639993203, 0.2749131730015506, 0.22509866500331555, 0.22097308899537893, 0.2001992059958866]",41,271.5445915809978,None,None,0,271.5445915809978,None,You lost $5.00!,5.6,4,31,0.31,56.09756097560976,0.23830318930508246,[0],100.0,30,3,271.81586450800387,None,,,,,,,,1,Scanner,0.35,2019_Aug_14_1139,MID,3.1.5,59.9010861757641,
LgReward,3000,0,0,0,0,0,41,41,41,,,,,,,,273.50475020700105,None,3000,275.51509915899805,None,None,275.51509915899805,None,1.69,"[0.2542431369947735, 0.2521261920046527, 0.2278964819997782, 0.028245911998965312, 0.24655221500142943, 0.2810867330044857, 0.24129695699957665, 0.24258045100577874, 0.13636809099989478, 0.2802276790025644, 0.24199843099631835, 0.2582734710013028, 0.23398807900230167, 0.23995493500115117, 0.3234939550020499, 0.28956394200213253, 0.24181299500196474, 0.30217760000232374, 0.2379019639993203, 0.2749131730015506, 0.22509866500331555, 0.22097308899537893, 0.2001992059958866]",42,278.5428010059986,None,None,0,278.5428010059986,None,You did not win $5.00!,5.6,1,32,0.31,54.761904761904766,0.23830318930508246,"[0, 0]",100.0,30,3,278.79982661899703,None,,,,,,,,1,Scanner,0.35,2019_Aug_14_1139,MID,3.1.5,59.9010861757641,
LgPun,1500,0,0,0,0,0,42,42,42,,,,,,,,280.4674049210007,None,1500,282.4993981259977,None,None,282.4993981259977,None,1.69,"[0.2542431369947735, 0.2521261920046527, 0.2278964819997782, 0.028245911998965312, 0.24655221500142943, 0.2810867330044857, 0.24129695699957665, 0.24258045100577874, 0.13636809099989478, 0.2802276790025644, 0.24199843099631835, 0.2582734710013028, 0.23398807900230167, 0.23995493500115117, 0.3234939550020499, 0.28956394200213253, 0.24181299500196474, 0.30217760000232374, 0.2379019639993203, 0.2749131730015506, 0.22509866500331555, 0.22097308899537893, 0.2001992059958866]",43,284.0129333119985,None,None,0,284.0129333119985,None,You lost $5.00!,0.5999999999999996,4,33,0.33,53.48837209302325,0.23830318930508246,[],50.0,33,3,284.2821859370015,None,,Adjusting RT...,,,,,,1,Scanner,0.35,2019_Aug_14_1139,MID,3.1.5,59.9010861757641,
LgReward,1500,0,0,0,0,0,43,43,43,,,,,,,,285.9666932179971,None,1500,287.98367026800406,None,None,287.98367026800406,None,1.67,"[0.2542431369947735, 0.2521261920046527, 0.2278964819997782, 0.028245911998965312, 0.24655221500142943, 0.2810867330044857, 0.24129695699957665, 0.24258045100577874, 0.13636809099989478, 0.2802276790025644, 0.24199843099631835, 0.2582734710013028, 0.23398807900230167, 0.23995493500115117, 0.3234939550020499, 0.28956394200213253, 0.24181299500196474, 0.30217760000232374, 0.2379019639993203, 0.2749131730015506, 0.22509866500331555, 0.22097308899537893, 0.2001992059958866]",44,289.5000649540016,None,None,0,289.5000649540016,None,You did not win $5.00!,0.5999999999999996,1,34,0.33,52.27272727272727,0.23830318930508246,[0],50.0,33,3,289.79996868500166,None,,,,,,,,1,Scanner,0.35,2019_Aug_14_1139,MID,3.1.5,59.9010861757641,
SmallReward,3000,0,0,0,0,0,44,44,44,,,,,,,,291.4740744340015,None,3000,293.4837761250019,None,1,293.4837761250019,None,1.67,"[0.2542431369947735, 0.2521261920046527, 0.2278964819997782, 0.028245911998965312, 0.24655221500142943, 0.2810867330044857, 0.24129695699957665, 0.24258045100577874, 0.13636809099989478, 0.2802276790025644, 0.24199843099631835, 0.2582734710013028, 0.23398807900230167, 0.23995493500115117, 0.3234939550020499, 0.28956394200213253, 0.24181299500196474, 0.30217760000232374, 0.2379019639993203, 0.2749131730015506, 0.22509866500331555, 0.22097308899537893, 0.2001992059958866]",45,296.5138819929998,None,None,0,296.5138819929998,None,You did not win $0.20!,0.5999999999999996,2,35,0.33,51.11111111111111,0.23830318930508246,"[0, 0]",50.0,33,3,296.8021960030019,None,,,2.712877806996403,,,,,1,Scanner,0.35,2019_Aug_14_1139,MID,3.1.5,59.9010861757641,
SmallPun,1500,0,0,0,0,0,45,45,45,,,,,,,,298.4532344320032,None,1500,300.4852451420011,None,None,300.4852451420011,None,1.67,"[0.2542431369947735, 0.2521261920046527, 0.2278964819997782, 0.028245911998965312, 0.24655221500142943, 0.2810867330044857, 0.24129695699957665, 0.24258045100577874, 0.13636809099989478, 0.2802276790025644, 0.24199843099631835, 0.2582734710013028, 0.23398807900230167, 0.23995493500115117, 0.3234939550020499, 0.28956394200213253, 0.24181299500196474, 0.30217760000232374, 0.2379019639993203, 0.2749131730015506, 0.22509866500331555, 0.22097308899537893, 0.2001992059958866]",46,301.9856508189987,None,None,0,301.9856508189987,None,You lost $0.20!,0.39999999999999963,5,36,0.4,50.0,0.23830318930508246,[],0.0,36,3,302.3020383289986,None,,Adjusting RT...,,,,,,1,Scanner,0.35,2019_Aug_14_1139,MID,3.1.5,59.9010861757641,
LgReward,1500,0,0,0,0,0,46,46,46,,,,,,,,303.9691953590009,None,1500,305.98619509900163,None,None,305.98619509900163,None,1.6,"[0.2542431369947735, 0.2521261920046527, 0.2278964819997782, 0.028245911998965312, 0.24655221500142943, 0.2810867330044857, 0.24129695699957665, 0.24258045100577874, 0.13636809099989478, 0.2802276790025644, 0.24199843099631835, 0.2582734710013028, 0.23398807900230167, 0.23995493500115117, 0.3234939550020499, 0.28956394200213253, 0.24181299500196474, 0.30217760000232374, 0.2379019639993203, 0.2749131730015506, 0.22509866500331555, 0.22097308899537893, 0.2001992059958866]",47,307.5128845299987,None,None,0,307.5128845299987,None,You did not win $5.00!,0.39999999999999963,1,37,0.4,48.93617021276596,0.23830318930508246,[0],0.0,36,3,307.86951737500203,None,,,,,,,,1,Scanner,0.35,2019_Aug_14_1139,MID,3.1.5,59.9010861757641,
SmallPun,2500,0,0,0,0,0,47,47,47,,,,,,,,309.45239598400076,None,2500,311.4867057390002,None,None,311.4867057390002,None,1.6,"[0.2542431369947735, 0.2521261920046527, 0.2278964819997782, 0.028245911998965312, 0.24655221500142943, 0.2810867330044857, 0.24129695699957665, 0.24258045100577874, 0.13636809099989478, 0.2802276790025644, 0.24199843099631835, 0.2582734710013028, 0.23398807900230167, 0.23995493500115117, 0.3234939550020499, 0.28956394200213253, 0.24181299500196474, 0.30217760000232374, 0.2379019639993203, 0.2749131730015506, 0.22509866500331555, 0.22097308899537893, 0.2001992059958866, 0.2992942499986384]",48,313.9933526419991,None,1,1,313.9933526419991,None,You did not lose $0.20!,0.39999999999999963,5,38,0.4,50.0,0.24084448350064727,"[0, 1]",0.0,36,3,314.3709453370029,None,0.2992942499986384,,,,,,,1,Scanner,0.35,2019_Aug_14_1139,MID,3.1.5,59.9010861757641,
SmallReward,1500,0,0,0,0,0,48,48,48,,,,,,,,315.9764118489984,None,1500,317.9874413229991,None,None,317.9874413229991,None,1.6,"[0.2542431369947735, 0.2521261920046527, 0.2278964819997782, 0.028245911998965312, 0.24655221500142943, 0.2810867330044857, 0.24129695699957665, 0.24258045100577874, 0.13636809099989478, 0.2802276790025644, 0.24199843099631835, 0.2582734710013028, 0.23398807900230167, 0.23995493500115117, 0.3234939550020499, 0.28956394200213253, 0.24181299500196474, 0.30217760000232374, 0.2379019639993203, 0.2749131730015506, 0.22509866500331555, 0.22097308899537893, 0.2001992059958866, 0.2992942499986384]",49,319.51410569900327,None,None,0,319.51410569900327,None,You did not win $0.20!,0.39999999999999963,2,39,0.45,48.97959183673469,0.24084448350064727,[],16.666666666666664,39,3,319.8718964380023,None,,Adjusting RT...,,,,,,1,Scanner,0.35,2019_Aug_14_1139,MID,3.1.5,59.9010861757641,
SmallPun,1500,0,0,0,0,0,49,49,49,,,,,,,,321.45602535599755,None,1500,323.4876821880025,None,None,323.4876821880025,None,1.55,"[0.2542431369947735, 0.2521261920046527, 0.2278964819997782, 0.028245911998965312, 0.24655221500142943, 0.2810867330044857, 0.24129695699957665, 0.24258045100577874, 0.13636809099989478, 0.2802276790025644, 0.24199843099631835, 0.2582734710013028, 0.23398807900230167, 0.23995493500115117, 0.3234939550020499, 0.28956394200213253, 0.24181299500196474, 0.30217760000232374, 0.2379019639993203, 0.2749131730015506, 0.22509866500331555, 0.22097308899537893, 0.2001992059958866, 0.2992942499986384, 0.25094765800167806]",50,325.0014928689998,None,1,1,325.0014928689998,None,You did not lose $0.20!,0.39999999999999963,5,40,0.45,50.0,0.24124861048068852,[1],16.666666666666664,39,3,325.42129554200073,None,0.25094765800167806,,,,,,,1,Scanner,0.35,2019_Aug_14_1139,MID,3.1.5,59.9010861757641,
,,0,0,0,0,,,,,,,,,,,,,,,,,,,,,,,,,,,,,,,,,,,,,,,,,,,,,,,,,1,Scanner,0.35,2019_Aug_14_1139,MID,3.1.5,59.9010861757641,
SmallPun,1500,1,0,1,0,0,0,0,0,326.98882415099797,None,330.37251681899943,None,331.30712456999754,None,TimeVersion12.csv,333.322959678997,None,1500,335.3395465909998,None,None,335.3395465909998,None,1.55,"[0.2542431369947735, 0.2521261920046527, 0.2278964819997782, 0.028245911998965312, 0.24655221500142943, 0.2810867330044857, 0.24129695699957665, 0.24258045100577874, 0.13636809099989478, 0.2802276790025644, 0.24199843099631835, 0.2582734710013028, 0.23398807900230167, 0.23995493500115117, 0.3234939550020499, 0.28956394200213253, 0.24181299500196474, 0.30217760000232374, 0.2379019639993203, 0.2749131730015506, 0.22509866500331555, 0.22097308899537893, 0.2001992059958866, 0.2992942499986384, 0.25094765800167806]",51,336.84617690800223,None,None,0,336.84617690800223,None,You lost $0.20!,0.19999999999999962,5,41,0.45,49.01960784313725,0.24124861048068852,"[1, 0]",16.666666666666664,39,3,337.2734689249992,None,,,,,,,,1,Scanner,0.35,2019_Aug_14_1139,MID,3.1.5,59.9010861757641,
LgPun,3500,1,0,1,0,0,1,1,1,,,,,,,,338.80684105800174,None,3500,340.84064571899944,None,None,340.84064571899944,None,1.55,"[0.2542431369947735, 0.2521261920046527, 0.2278964819997782, 0.028245911998965312, 0.24655221500142943, 0.2810867330044857, 0.24129695699957665, 0.24258045100577874, 0.13636809099989478, 0.2802276790025644, 0.24199843099631835, 0.2582734710013028, 0.23398807900230167, 0.23995493500115117, 0.3234939550020499, 0.28956394200213253, 0.24181299500196474, 0.30217760000232374, 0.2379019639993203, 0.2749131730015506, 0.22509866500331555, 0.22097308899537893, 0.2001992059958866, 0.2992942499986384, 0.25094765800167806, 0.2059631750016706]",52,344.3504682240018,None,1,1,344.3504682240018,None,You did not lose $5.00!,0.19999999999999962,4,42,0.47000000000000003,50.0,0.23989147834688013,[],49.99999999999999,42,3,344.7571509059999,None,0.2059631750016706,Adjusting RT...,,,,,,1,Scanner,0.35,2019_Aug_14_1139,MID,3.1.5,59.9010861757641,
Triangle,2500,1,0,1,0,0,2,2,2,,,,,,,,346.3076850319994,None,2500,348.34170867899957,None,None,348.34170867899957,None,1.53,"[0.2542431369947735, 0.2521261920046527, 0.2278964819997782, 0.028245911998965312, 0.24655221500142943, 0.2810867330044857, 0.24129695699957665, 0.24258045100577874, 0.13636809099989478, 0.2802276790025644, 0.24199843099631835, 0.2582734710013028, 0.23398807900230167, 0.23995493500115117, 0.3234939550020499, 0.28956394200213253, 0.24181299500196474, 0.30217760000232374, 0.2379019639993203, 0.2749131730015506, 0.22509866500331555, 0.22097308899537893, 0.2001992059958866, 0.2992942499986384, 0.25094765800167806, 0.2059631750016706, 0.23412706899398472]",53,350.84233122200385,None,1,1,350.84233122200385,None,You did not win or lose anything!,0.19999999999999962,3,42,0.47000000000000003,50.943396226415096,0.2396779817041803,[],49.99999999999999,42,3,351.2916748610005,None,0.23412706899398472,,,,,,,1,Scanner,0.35,2019_Aug_14_1139,MID,3.1.5,59.9010861757641,
LgPun,3000,1,0,1,0,0,3,3,3,,,,,,,,352.8084286930025,None,3000,354.8415683459971,None,None,354.8415683459971,None,1.53,"[0.2542431369947735, 0.2521261920046527, 0.2278964819997782, 0.028245911998965312, 0.24655221500142943, 0.2810867330044857, 0.24129695699957665, 0.24258045100577874, 0.13636809099989478, 0.2802276790025644, 0.24199843099631835, 0.2582734710013028, 0.23398807900230167, 0.23995493500115117, 0.3234939550020499, 0.28956394200213253, 0.24181299500196474, 0.30217760000232374, 0.2379019639993203, 0.2749131730015506, 0.22509866500331555, 0.22097308899537893, 0.2001992059958866, 0.2992942499986384, 0.25094765800167806, 0.2059631750016706, 0.23412706899398472]",54,357.85578423600236,None,None,0,357.85578423600236,None,You lost $5.00!,-4.800000000000001,4,43,0.47000000000000003,50.0,0.2396779817041803,[0],49.99999999999999,42,3,358.29357284100115,None,,,,,,,,1,Scanner,0.35,2019_Aug_14_1139,MID,3.1.5,59.9010861757641,
SmallReward,4000,1,0,1,0,0,4,4,4,,,,,,,,359.83275618399784,None,4000,361.8430321039996,None,None,361.8430321039996,None,1.53,"[0.2542431369947735, 0.2521261920046527, 0.2278964819997782, 0.028245911998965312, 0.24655221500142943, 0.2810867330044857, 0.24129695699957665, 0.24258045100577874, 0.13636809099989478, 0.2802276790025644, 0.24199843099631835, 0.2582734710013028, 0.23398807900230167, 0.23995493500115117, 0.3234939550020499, 0.28956394200213253, 0.24181299500196474, 0.30217760000232374, 0.2379019639993203, 0.2749131730015506, 0.22509866500331555, 0.22097308899537893, 0.2001992059958866, 0.2992942499986384, 0.25094765800167806, 0.2059631750016706, 0.23412706899398472, 0.2757518889993662]",55,365.8728141149986,None,1,1,365.8728141149986,None,You won $0.20!,-4.6000000000000005,2,44,0.47000000000000003,50.90909090909091,0.24096633553615124,"[0, 1]",49.99999999999999,42,3,366.2936353469995,None,0.2757518889993662,,,,,,,1,Scanner,0.35,2019_Aug_14_1139,MID,3.1.5,59.9010861757641,
LgReward,1500,1,0,1,0,0,5,5,5,,,,,,,,367.8267873560035,None,1500,369.84463304399833,None,None,369.84463304399833,None,1.53,"[0.2542431369947735, 0.2521261920046527, 0.2278964819997782, 0.028245911998965312, 0.24655221500142943, 0.2810867330044857, 0.24129695699957665, 0.24258045100577874, 0.13636809099989478, 0.2802276790025644, 0.24199843099631835, 0.2582734710013028, 0.23398807900230167, 0.23995493500115117, 0.3234939550020499, 0.28956394200213253, 0.24181299500196474, 0.30217760000232374, 0.2379019639993203, 0.2749131730015506, 0.22509866500331555, 0.22097308899537893, 0.2001992059958866, 0.2992942499986384, 0.25094765800167806, 0.2059631750016706, 0.23412706899398472, 0.2757518889993662]",56,371.37779490499815,None,None,0,371.37779490499815,None,You did not win $5.00!,-4.6000000000000005,1,45,0.49000000000000005,50.0,0.24096633553615124,[],49.99999999999999,45,3,371.7944652139995,None,,Adjusting RT...,,,,,,1,Scanner,0.35,2019_Aug_14_1139,MID,3.1.5,59.9010861757641,
SmallPun,4000,1,0,1,0,0,6,6,6,,,,,,,,373.3124280580014,None,4000,375.3443926570035,None,None,375.3443926570035,None,1.51,"[0.2542431369947735, 0.2521261920046527, 0.2278964819997782, 0.028245911998965312, 0.24655221500142943, 0.2810867330044857, 0.24129695699957665, 0.24258045100577874, 0.13636809099989478, 0.2802276790025644, 0.24199843099631835, 0.2582734710013028, 0.23398807900230167, 0.23995493500115117, 0.3234939550020499, 0.28956394200213253, 0.24181299500196474, 0.30217760000232374, 0.2379019639993203, 0.2749131730015506, 0.22509866500331555, 0.22097308899537893, 0.2001992059958866, 0.2992942499986384, 0.25094765800167806, 0.2059631750016706, 0.23412706899398472, 0.2757518889993662, 0.27056383099989034]",57,379.3586774180003,None,1,1,379.3586774180003,None,You did not lose $0.20!,-4.6000000000000005,5,46,0.49000000000000005,50.877192982456144,0.2419869388280043,[1],49.99999999999999,45,3,379.81263742900046,None,0.27056383099989034,,,,,,,1,Scanner,0.35,2019_Aug_14_1139,MID,3.1.5,59.9010861757641,
SmallReward,2000,1,0,1,0,0,7,7,7,,,,,,,,381.31843128000037,None,2000,383.32982615999936,None,None,383.32982615999936,None,1.51,"[0.2542431369947735, 0.2521261920046527, 0.2278964819997782, 0.028245911998965312, 0.24655221500142943, 0.2810867330044857, 0.24129695699957665, 0.24258045100577874, 0.13636809099989478, 0.2802276790025644, 0.24199843099631835, 0.2582734710013028, 0.23398807900230167, 0.23995493500115117, 0.3234939550020499, 0.28956394200213253, 0.24181299500196474, 0.30217760000232374, 0.2379019639993203, 0.2749131730015506, 0.22509866500331555, 0.22097308899537893, 0.2001992059958866, 0.2992942499986384, 0.25094765800167806, 0.2059631750016706, 0.23412706899398472, 0.2757518889993662, 0.27056383099989034]",58,385.354117253999,None,None,0,385.354117253999,None,You did not win $0.20!,-4.6000000000000005,2,47,0.49000000000000005,50.0,0.2419869388280043,"[1, 0]",49.99999999999999,45,3,385.7800320730021,None,,,,,,,,1,Scanner,0.35,2019_Aug_14_1139,MID,3.1.5,59.9010861757641,
SmallPun,1500,1,0,1,0,0,8,8,8,,,,,,,,387.2813893470011,None,1500,389.31363416800014,None,None,389.31363416800014,None,1.51,"[0.2542431369947735, 0.2521261920046527, 0.2278964819997782, 0.028245911998965312, 0.24655221500142943, 0.2810867330044857, 0.24129695699957665, 0.24258045100577874, 0.13636809099989478, 0.2802276790025644, 0.24199843099631835, 0.2582734710013028, 0.23398807900230167, 0.23995493500115117, 0.3234939550020499, 0.28956394200213253, 0.24181299500196474, 0.30217760000232374, 0.2379019639993203, 0.2749131730015506, 0.22509866500331555, 0.22097308899537893, 0.2001992059958866, 0.2992942499986384, 0.25094765800167806, 0.2059631750016706, 0.23412706899398472, 0.2757518889993662, 0.27056383099989034]",59,390.8268514369993,None,None,0,390.8268514369993,None,You lost $0.20!,-4.800000000000001,5,48,0.5,49.152542372881356,0.2419869388280043,[],33.33333333333333,48,3,391.2640337089979,None,,Adjusting RT...,,,,,,1,Scanner,0.35,2019_Aug_14_1139,MID,3.1.5,59.9010861757641,
SmallPun,3000,1,0,1,0,0,9,9,9,,,,,,,,392.7635859680013,None,3000,394.7977286079986,None,None,394.7977286079986,None,1.5,"[0.2542431369947735, 0.2521261920046527, 0.2278964819997782, 0.028245911998965312, 0.24655221500142943, 0.2810867330044857, 0.24129695699957665, 0.24258045100577874, 0.13636809099989478, 0.2802276790025644, 0.24199843099631835, 0.2582734710013028, 0.23398807900230167, 0.23995493500115117, 0.3234939550020499, 0.28956394200213253, 0.24181299500196474, 0.30217760000232374, 0.2379019639993203, 0.2749131730015506, 0.22509866500331555, 0.22097308899537893, 0.2001992059958866, 0.2992942499986384, 0.25094765800167806, 0.2059631750016706, 0.23412706899398472, 0.2757518889993662, 0.27056383099989034, 0.23540899199724663]",60,397.81060702299874,None,1,1,397.81060702299874,None,You did not lose $0.20!,-4.800000000000001,5,49,0.5,50.0,0.2417676739336457,[1],33.33333333333333,48,3,398.2643705189985,None,0.23540899199724663,,,,,,,1,Scanner,0.35,2019_Aug_14_1139,MID,3.1.5,59.9010861757641,
LgReward,4000,1,0,1,0,0,10,10,10,,,,,,,,399.78137986399815,None,4000,401.7987211330037,None,None,401.7987211330037,None,1.5,"[0.2542431369947735, 0.2521261920046527, 0.2278964819997782, 0.028245911998965312, 0.24655221500142943, 0.2810867330044857, 0.24129695699957665, 0.24258045100577874, 0.13636809099989478, 0.2802276790025644, 0.24199843099631835, 0.2582734710013028, 0.23398807900230167, 0.23995493500115117, 0.3234939550020499, 0.28956394200213253, 0.24181299500196474, 0.30217760000232374, 0.2379019639993203, 0.2749131730015506, 0.22509866500331555, 0.22097308899537893, 0.2001992059958866, 0.2992942499986384, 0.25094765800167806, 0.2059631750016706, 0.23412706899398472, 0.2757518889993662, 0.27056383099989034, 0.23540899199724663, 0.30310029599786503]",61,405.8229884350003,None,1,1,405.8229884350003,None,You won $5.00!,0.1999999999999993,1,50,0.5,50.81967213114754,0.24374614561313665,"[1, 1]",33.33333333333333,48,3,406.2658529210021,None,0.30310029599786503,,,,,,,1,Scanner,0.35,2019_Aug_14_1139,MID,3.1.5,59.9010861757641,
LgReward,2500,1,0,1,0,0,11,11,11,,,,,,,,407.7824876509985,None,2500,409.799079477998,None,None,409.799079477998,None,1.5,"[0.2542431369947735, 0.2521261920046527, 0.2278964819997782, 0.028245911998965312, 0.24655221500142943, 0.2810867330044857, 0.24129695699957665, 0.24258045100577874, 0.13636809099989478, 0.2802276790025644, 0.24199843099631835, 0.2582734710013028, 0.23398807900230167, 0.23995493500115117, 0.3234939550020499, 0.28956394200213253, 0.24181299500196474, 0.30217760000232374, 0.2379019639993203, 0.2749131730015506, 0.22509866500331555, 0.22097308899537893, 0.2001992059958866, 0.2992942499986384, 0.25094765800167806, 0.2059631750016706, 0.23412706899398472, 0.2757518889993662, 0.27056383099989034, 0.23540899199724663, 0.30310029599786503, 0.25737640500301495]",62,412.3167016840016,None,1,1,412.3167016840016,None,You won $5.00!,5.199999999999999,1,51,0.48,51.61290322580645,0.24417209121907035,[],66.66666666666666,51,3,412.76663949200156,None,0.25737640500301495,Adjusting RT...,,,,,,1,Scanner,0.35,2019_Aug_14_1139,MID,3.1.5,59.9010861757641,
Triangle,1500,1,0,1,0,0,12,12,12,,,,,,,,414.26784368600056,None,1500,416.30027510700165,None,None,416.30027510700165,None,1.52,"[0.2542431369947735, 0.2521261920046527, 0.2278964819997782, 0.028245911998965312, 0.24655221500142943, 0.2810867330044857, 0.24129695699957665, 0.24258045100577874, 0.13636809099989478, 0.2802276790025644, 0.24199843099631835, 0.2582734710013028, 0.23398807900230167, 0.23995493500115117, 0.3234939550020499, 0.28956394200213253, 0.24181299500196474, 0.30217760000232374, 0.2379019639993203, 0.2749131730015506, 0.22509866500331555, 0.22097308899537893, 0.2001992059958866, 0.2992942499986384, 0.25094765800167806, 0.2059631750016706, 0.23412706899398472, 0.2757518889993662, 0.27056383099989034, 0.23540899199724663, 0.30310029599786503, 0.25737640500301495, 0.34433510700182524]",63,417.81374679500004,None,1,1,417.81374679500004,None,You did not win or lose anything!,5.199999999999999,3,51,0.48,52.38095238095239,0.24720733412157808,[],66.66666666666666,51,3,418.2503515130011,None,0.34433510700182524,,,,,,,1,Scanner,0.35,2019_Aug_14_1139,MID,3.1.5,59.9010861757641,
LgReward,1500,1,0,1,0,0,13,13,13,,,,,,,,419.7840095369975,None,1500,421.8003990139987,None,None,421.8003990139987,None,1.52,"[0.2542431369947735, 0.2521261920046527, 0.2278964819997782, 0.028245911998965312, 0.24655221500142943, 0.2810867330044857, 0.24129695699957665, 0.24258045100577874, 0.13636809099989478, 0.2802276790025644, 0.24199843099631835, 0.2582734710013028, 0.23398807900230167, 0.23995493500115117, 0.3234939550020499, 0.28956394200213253, 0.24181299500196474, 0.30217760000232374, 0.2379019639993203, 0.2749131730015506, 0.22509866500331555, 0.22097308899537893, 0.2001992059958866, 0.2992942499986384, 0.25094765800167806, 0.2059631750016706, 0.23412706899398472, 0.2757518889993662, 0.27056383099989034, 0.23540899199724663, 0.30310029599786503, 0.25737640500301495, 0.34433510700182524, 0.27984052499959944]",64,423.31823209999857,None,1,1,423.31823209999857,None,You won $5.00!,10.2,1,52,0.48,53.125,0.2481671338532846,[1],66.66666666666666,51,3,423.75069763800275,None,0.27984052499959944,,,,,,,1,Scanner,0.35,2019_Aug_14_1139,MID,3.1.5,59.9010861757641,
SmallReward,1500,1,0,1,0,0,14,14,14,,,,,,,,425.29147548699984,None,1500,427.3013283820037,None,None,427.3013283820037,None,1.52,"[0.2542431369947735, 0.2521261920046527, 0.2278964819997782, 0.028245911998965312, 0.24655221500142943, 0.2810867330044857, 0.24129695699957665, 0.24258045100577874, 0.13636809099989478, 0.2802276790025644, 0.24199843099631835, 0.2582734710013028, 0.23398807900230167, 0.23995493500115117, 0.3234939550020499, 0.28956394200213253, 0.24181299500196474, 0.30217760000232374, 0.2379019639993203, 0.2749131730015506, 0.22509866500331555, 0.22097308899537893, 0.2001992059958866, 0.2992942499986384, 0.25094765800167806, 0.2059631750016706, 0.23412706899398472, 0.2757518889993662, 0.27056383099989034, 0.23540899199724663, 0.30310029599786503, 0.25737640500301495, 0.34433510700182524, 0.27984052499959944]",65,428.8183681189985,None,None,0,428.8183681189985,None,You did not win $0.20!,10.2,2,53,0.48,52.307692307692314,0.2481671338532846,"[1, 0]",66.66666666666666,51,3,429.2690316790031,None,,,,,,,,1,Scanner,0.35,2019_Aug_14_1139,MID,3.1.5,59.9010861757641,
LgPun,1500,1,0,1,0,0,15,15,15,,,,,,,,430.7685666910038,None,1500,432.8023948760019,None,None,432.8023948760019,None,1.52,"[0.2542431369947735, 0.2521261920046527, 0.2278964819997782, 0.028245911998965312, 0.24655221500142943, 0.2810867330044857, 0.24129695699957665, 0.24258045100577874, 0.13636809099989478, 0.2802276790025644, 0.24199843099631835, 0.2582734710013028, 0.23398807900230167, 0.23995493500115117, 0.3234939550020499, 0.28956394200213253, 0.24181299500196474, 0.30217760000232374, 0.2379019639993203, 0.2749131730015506, 0.22509866500331555, 0.22097308899537893, 0.2001992059958866, 0.2992942499986384, 0.25094765800167806, 0.2059631750016706, 0.23412706899398472, 0.2757518889993662, 0.27056383099989034, 0.23540899199724663, 0.30310029599786503, 0.25737640500301495, 0.34433510700182524, 0.27984052499959944]",66,434.30295899700286,None,None,0,434.30295899700286,None,You lost $5.00!,5.199999999999999,4,54,0.45999999999999996,51.515151515151516,0.2481671338532846,[],66.66666666666666,54,3,434.76951197999733,None,,Adjusting RT...,,,,,,1,Scanner,0.35,2019_Aug_14_1139,MID,3.1.5,59.9010861757641,
SmallReward,2500,1,0,1,0,0,16,16,16,,,,,,,,436.2930519360016,None,2500,438.3037780290033,None,1,438.3037780290033,None,1.54,"[0.2542431369947735, 0.2521261920046527, 0.2278964819997782, 0.028245911998965312, 0.24655221500142943, 0.2810867330044857, 0.24129695699957665, 0.24258045100577874, 0.13636809099989478, 0.2802276790025644, 0.24199843099631835, 0.2582734710013028, 0.23398807900230167, 0.23995493500115117, 0.3234939550020499, 0.28956394200213253, 0.24181299500196474, 0.30217760000232374, 0.2379019639993203, 0.2749131730015506, 0.22509866500331555, 0.22097308899537893, 0.2001992059958866, 0.2992942499986384, 0.25094765800167806, 0.2059631750016706, 0.23412706899398472, 0.2757518889993662, 0.27056383099989034, 0.23540899199724663, 0.30310029599786503, 0.25737640500301495, 0.34433510700182524, 0.27984052499959944]",67,440.8304566880033,None,None,0,440.8304566880033,None,You did not win $0.20!,5.199999999999999,2,55,0.45999999999999996,50.74626865671642,0.2481671338532846,[0],66.66666666666666,54,3,441.2369086519975,None,,,0.4206736250052927,,,,,1,Scanner,0.35,2019_Aug_14_1139,MID,3.1.5,59.9010861757641,
SmallReward,3000,1,0,1,0,0,17,17,17,,,,,,,,442.7692981779983,None,3000,444.79391836500145,None,None,444.79391836500145,None,1.54,"[0.2542431369947735, 0.2521261920046527, 0.2278964819997782, 0.028245911998965312, 0.24655221500142943, 0.2810867330044857, 0.24129695699957665, 0.24258045100577874, 0.13636809099989478, 0.2802276790025644, 0.24199843099631835, 0.2582734710013028, 0.23398807900230167, 0.23995493500115117, 0.3234939550020499, 0.28956394200213253, 0.24181299500196474, 0.30217760000232374, 0.2379019639993203, 0.2749131730015506, 0.22509866500331555, 0.22097308899537893, 0.2001992059958866, 0.2992942499986384, 0.25094765800167806, 0.2059631750016706, 0.23412706899398472, 0.2757518889993662, 0.27056383099989034, 0.23540899199724663, 0.30310029599786503, 0.25737640500301495, 0.34433510700182524, 0.27984052499959944, 0.2526490759992157]",68,447.86385403299937,None,1,1,447.86385403299937,None,You won $0.20!,5.3999999999999995,2,56,0.45999999999999996,51.470588235294116,0.24829518934316833,"[0, 1]",66.66666666666666,54,3,448.2043472590012,None,0.2526490759992157,,,,,,,1,Scanner,0.35,2019_Aug_14_1139,MID,3.1.5,59.9010861757641,
Triangle,2000,1,0,1,0,0,18,18,18,,,,,,,,449.7377465940008,None,2000,451.7725798829997,None,None,451.7725798829997,None,1.54,"[0.2542431369947735, 0.2521261920046527, 0.2278964819997782, 0.028245911998965312, 0.24655221500142943, 0.2810867330044857, 0.24129695699957665, 0.24258045100577874, 0.13636809099989478, 0.2802276790025644, 0.24199843099631835, 0.2582734710013028, 0.23398807900230167, 0.23995493500115117, 0.3234939550020499, 0.28956394200213253, 0.24181299500196474, 0.30217760000232374, 0.2379019639993203, 0.2749131730015506, 0.22509866500331555, 0.22097308899537893, 0.2001992059958866, 0.2992942499986384, 0.25094765800167806, 0.2059631750016706, 0.23412706899398472, 0.2757518889993662, 0.27056383099989034, 0.23540899199724663, 0.30310029599786503, 0.25737640500301495, 0.34433510700182524, 0.27984052499959944, 0.2526490759992157]",69,453.7858213380023,None,None,0,453.7858213380023,None,You did not win or lose anything!,5.3999999999999995,3,56,0.45999999999999996,50.72463768115942,0.24829518934316833,"[0, 1]",66.66666666666666,54,3,454.20476758300356,None,,,,,,,,1,Scanner,0.35,2019_Aug_14_1139,MID,3.1.5,59.9010861757641,
SmallReward,3500,1,0,1,0,0,19,19,19,,,,,,,,455.738592255002,None,3500,457.75583246300084,None,None,457.75583246300084,None,1.54,"[0.2542431369947735, 0.2521261920046527, 0.2278964819997782, 0.028245911998965312, 0.24655221500142943, 0.2810867330044857, 0.24129695699957665, 0.24258045100577874, 0.13636809099989478, 0.2802276790025644, 0.24199843099631835, 0.2582734710013028, 0.23398807900230167, 0.23995493500115117, 0.3234939550020499, 0.28956394200213253, 0.24181299500196474, 0.30217760000232374, 0.2379019639993203, 0.2749131730015506, 0.22509866500331555, 0.22097308899537893, 0.2001992059958866, 0.2992942499986384, 0.25094765800167806, 0.2059631750016706, 0.23412706899398472, 0.2757518889993662, 0.27056383099989034, 0.23540899199724663, 0.30310029599786503, 0.25737640500301495, 0.34433510700182524, 0.27984052499959944, 0.2526490759992157, 0.30607192799652694]",70,461.285272891997,None,1,1,461.285272891997,None,You won $0.20!,5.6,2,57,0.48,51.42857142857142,0.24990009875020608,[],49.99999999999999,57,3,461.6724816200003,None,0.30607192799652694,Adjusting RT...,,,,,,1,Scanner,0.35,2019_Aug_14_1139,MID,3.1.5,59.9010861757641,
LgPun,2000,1,0,1,0,0,20,20,20,,,,,,,,463.2061990209986,None,2000,465.23998881399893,None,None,465.23998881399893,None,1.52,"[0.2542431369947735, 0.2521261920046527, 0.2278964819997782, 0.028245911998965312, 0.24655221500142943, 0.2810867330044857, 0.24129695699957665, 0.24258045100577874, 0.13636809099989478, 0.2802276790025644, 0.24199843099631835, 0.2582734710013028, 0.23398807900230167, 0.23995493500115117, 0.3234939550020499, 0.28956394200213253, 0.24181299500196474, 0.30217760000232374, 0.2379019639993203, 0.2749131730015506, 0.22509866500331555, 0.22097308899537893, 0.2001992059958866, 0.2992942499986384, 0.25094765800167806, 0.2059631750016706, 0.23412706899398472, 0.2757518889993662, 0.27056383099989034, 0.23540899199724663, 0.30310029599786503, 0.25737640500301495, 0.34433510700182524, 0.27984052499959944, 0.2526490759992157, 0.30607192799652694]",71,467.2404067030002,None,None,0,467.2404067030002,None,You lost $5.00!,0.5999999999999996,4,58,0.48,50.70422535211267,0.24990009875020608,[0],49.99999999999999,57,3,467.70830810700136,None,,,,,,,,1,Scanner,0.35,2019_Aug_14_1139,MID,3.1.5,59.9010861757641,
LgReward,3000,1,0,1,0,0,21,21,21,,,,,,,,469.23065734899865,None,3000,471.2409446149977,None,None,471.2409446149977,None,1.52,"[0.2542431369947735, 0.2521261920046527, 0.2278964819997782, 0.028245911998965312, 0.24655221500142943, 0.2810867330044857, 0.24129695699957665, 0.24258045100577874, 0.13636809099989478, 0.2802276790025644, 0.24199843099631835, 0.2582734710013028, 0.23398807900230167, 0.23995493500115117, 0.3234939550020499, 0.28956394200213253, 0.24181299500196474, 0.30217760000232374, 0.2379019639993203, 0.2749131730015506, 0.22509866500331555, 0.22097308899537893, 0.2001992059958866, 0.2992942499986384, 0.25094765800167806, 0.2059631750016706, 0.23412706899398472, 0.2757518889993662, 0.27056383099989034, 0.23540899199724663, 0.30310029599786503, 0.25737640500301495, 0.34433510700182524, 0.27984052499959944, 0.2526490759992157, 0.30607192799652694, 0.3482226210035151]",72,474.26643558799697,None,1,1,474.26643558799697,None,You won $5.00!,5.6,1,59,0.48,51.388888888888886,0.2525574642165117,"[0, 1]",49.99999999999999,57,3,474.70761142099946,None,0.3482226210035151,,,,,,,1,Scanner,0.35,2019_Aug_14_1139,MID,3.1.5,59.9010861757641,
LgReward,2000,1,0,1,0,0,22,22,22,,,,,,,,476.2317498170014,None,2000,478.2411866830007,None,None,478.2411866830007,None,1.52,"[0.2542431369947735, 0.2521261920046527, 0.2278964819997782, 0.028245911998965312, 0.24655221500142943, 0.2810867330044857, 0.24129695699957665, 0.24258045100577874, 0.13636809099989478, 0.2802276790025644, 0.24199843099631835, 0.2582734710013028, 0.23398807900230167, 0.23995493500115117, 0.3234939550020499, 0.28956394200213253, 0.24181299500196474, 0.30217760000232374, 0.2379019639993203, 0.2749131730015506, 0.22509866500331555, 0.22097308899537893, 0.2001992059958866, 0.2992942499986384, 0.25094765800167806, 0.2059631750016706, 0.23412706899398472, 0.2757518889993662, 0.27056383099989034, 0.23540899199724663, 0.30310029599786503, 0.25737640500301495, 0.34433510700182524, 0.27984052499959944, 0.2526490759992157, 0.30607192799652694, 0.3482226210035151]",73,480.2697408210006,None,None,0,480.2697408210006,None,You did not win $5.00!,5.6,1,60,0.5,50.68493150684932,0.2525574642165117,[],49.99999999999999,60,3,480.7092565269995,None,,Adjusting RT...,,,,,,1,Scanner,0.35,2019_Aug_14_1139,MID,3.1.5,59.9010861757641,
Triangle,3000,1,0,1,0,0,23,23,23,,,,,,,,482.210037017001,None,3000,484.24194601199997,None,None,484.24194601199997,None,1.5,"[0.2542431369947735, 0.2521261920046527, 0.2278964819997782, 0.028245911998965312, 0.24655221500142943, 0.2810867330044857, 0.24129695699957665, 0.24258045100577874, 0.13636809099989478, 0.2802276790025644, 0.24199843099631835, 0.2582734710013028, 0.23398807900230167, 0.23995493500115117, 0.3234939550020499, 0.28956394200213253, 0.24181299500196474, 0.30217760000232374, 0.2379019639993203, 0.2749131730015506, 0.22509866500331555, 0.22097308899537893, 0.2001992059958866, 0.2992942499986384, 0.25094765800167806, 0.2059631750016706, 0.23412706899398472, 0.2757518889993662, 0.27056383099989034, 0.23540899199724663, 0.30310029599786503, 0.25737640500301495, 0.34433510700182524, 0.27984052499959944, 0.2526490759992157, 0.30607192799652694, 0.3482226210035151, 0.2557618279970484]",74,487.2556798470032,None,1,1,487.2556798470032,None,You did not win or lose anything!,5.6,3,60,0.5,51.35135135135135,0.25264178957915745,[],49.99999999999999,60,3,487.70923147100257,None,0.2557618279970484,,,,,,,1,Scanner,0.35,2019_Aug_14_1139,MID,3.1.5,59.9010861757641,
LgPun,2500,1,0,1,0,0,24,24,24,,,,,,,,489.21142043500004,None,2500,491.24334512899804,None,None,491.24334512899804,None,1.5,"[0.2542431369947735, 0.2521261920046527, 0.2278964819997782, 0.028245911998965312, 0.24655221500142943, 0.2810867330044857, 0.24129695699957665, 0.24258045100577874, 0.13636809099989478, 0.2802276790025644, 0.24199843099631835, 0.2582734710013028, 0.23398807900230167, 0.23995493500115117, 0.3234939550020499, 0.28956394200213253, 0.24181299500196474, 0.30217760000232374, 0.2379019639993203, 0.2749131730015506, 0.22509866500331555, 0.22097308899537893, 0.2001992059958866, 0.2992942499986384, 0.25094765800167806, 0.2059631750016706, 0.23412706899398472, 0.2757518889993662, 0.27056383099989034, 0.23540899199724663, 0.30310029599786503, 0.25737640500301495, 0.34433510700182524, 0.27984052499959944, 0.2526490759992157, 0.30607192799652694, 0.3482226210035151, 0.2557618279970484, 0.301332087998162]",75,493.754229942002,None,1,1,493.754229942002,None,You did not lose $5.00!,5.6,4,61,0.5,52.0,0.2538902587693883,[1],49.99999999999999,60,3,494.22722126900044,None,0.301332087998162,,,,,,,1,Scanner,0.35,2019_Aug_14_1139,MID,3.1.5,59.9010861757641,
SmallReward,1500,1,0,1,0,0,25,25,25,,,,,,,,495.72690438300197,None,1500,497.7436064529975,None,None,497.7436064529975,None,1.5,"[0.2542431369947735, 0.2521261920046527, 0.2278964819997782, 0.028245911998965312, 0.24655221500142943, 0.2810867330044857, 0.24129695699957665, 0.24258045100577874, 0.13636809099989478, 0.2802276790025644, 0.24199843099631835, 0.2582734710013028, 0.23398807900230167, 0.23995493500115117, 0.3234939550020499, 0.28956394200213253, 0.24181299500196474, 0.30217760000232374, 0.2379019639993203, 0.2749131730015506, 0.22509866500331555, 0.22097308899537893, 0.2001992059958866, 0.2992942499986384, 0.25094765800167806, 0.2059631750016706, 0.23412706899398472, 0.2757518889993662, 0.27056383099989034, 0.23540899199724663, 0.30310029599786503, 0.25737640500301495, 0.34433510700182524, 0.27984052499959944, 0.2526490759992157, 0.30607192799652694, 0.3482226210035151, 0.2557618279970484, 0.301332087998162]",76,499.26092040500225,None,None,0,499.26092040500225,None,You did not win $0.20!,5.6,2,62,0.5,51.31578947368421,0.2538902587693883,"[1, 0]",49.99999999999999,60,3,499.71026402999996,None,,,,,,,,1,Scanner,0.35,2019_Aug_14_1139,MID,3.1.5,59.9010861757641,
Triangle,4000,1,0,1,0,0,26,26,26,,,,,,,,501.2129311989993,None,4000,503.2441720959978,None,None,503.2441720959978,None,1.5,"[0.2542431369947735, 0.2521261920046527, 0.2278964819997782, 0.028245911998965312, 0.24655221500142943, 0.2810867330044857, 0.24129695699957665, 0.24258045100577874, 0.13636809099989478, 0.2802276790025644, 0.24199843099631835, 0.2582734710013028, 0.23398807900230167, 0.23995493500115117, 0.3234939550020499, 0.28956394200213253, 0.24181299500196474, 0.30217760000232374, 0.2379019639993203, 0.2749131730015506, 0.22509866500331555, 0.22097308899537893, 0.2001992059958866, 0.2992942499986384, 0.25094765800167806, 0.2059631750016706, 0.23412706899398472, 0.2757518889993662, 0.27056383099989034, 0.23540899199724663, 0.30310029599786503, 0.25737640500301495, 0.34433510700182524, 0.27984052499959944, 0.2526490759992157, 0.30607192799652694, 0.3482226210035151, 0.2557618279970484, 0.301332087998162, 0.316861268998764]",77,507.2586752549978,None,1,1,507.2586752549978,None,You did not win or lose anything!,5.6,3,62,0.5,51.94805194805194,0.2554645340251227,"[1, 0]",49.99999999999999,60,3,507.7117619100027,None,0.316861268998764,,,,,,,1,Scanner,0.35,2019_Aug_14_1139,MID,3.1.5,59.9010861757641,
SmallPun,2000,1,0,1,0,0,27,27,27,,,,,,,,509.2120029470025,None,2000,511.24510150199785,None,None,511.24510150199785,None,1.5,"[0.2542431369947735, 0.2521261920046527, 0.2278964819997782, 0.028245911998965312, 0.24655221500142943, 0.2810867330044857, 0.24129695699957665, 0.24258045100577874, 0.13636809099989478, 0.2802276790025644, 0.24199843099631835, 0.2582734710013028, 0.23398807900230167, 0.23995493500115117, 0.3234939550020499, 0.28956394200213253, 0.24181299500196474, 0.30217760000232374, 0.2379019639993203, 0.2749131730015506, 0.22509866500331555, 0.22097308899537893, 0.2001992059958866, 0.2992942499986384, 0.25094765800167806, 0.2059631750016706, 0.23412706899398472, 0.2757518889993662, 0.27056383099989034, 0.23540899199724663, 0.30310029599786503, 0.25737640500301495, 0.34433510700182524, 0.27984052499959944, 0.2526490759992157, 0.30607192799652694, 0.3482226210035151, 0.2557618279970484, 0.301332087998162, 0.316861268998764, 0.3528837800040492]",78,513.2466879330022,None,1,1,513.2466879330022,None,You did not lose $0.20!,5.6,5,63,0.5,52.56410256410257,0.2578406131953404,[],49.99999999999999,63,3,513.7133302470029,None,0.3528837800040492,Adjusting RT...,,,,,,1,Scanner,0.35,2019_Aug_14_1139,MID,3.1.5,59.9010861757641,
Triangle,1500,1,0,1,0,0,28,28,28,,,,,,,,515.2139106969989,None,1500,517.2467238600002,None,None,517.2467238600002,None,1.5,"[0.2542431369947735, 0.2521261920046527, 0.2278964819997782, 0.028245911998965312, 0.24655221500142943, 0.2810867330044857, 0.24129695699957665, 0.24258045100577874, 0.13636809099989478, 0.2802276790025644, 0.24199843099631835, 0.2582734710013028, 0.23398807900230167, 0.23995493500115117, 0.3234939550020499, 0.28956394200213253, 0.24181299500196474, 0.30217760000232374, 0.2379019639993203, 0.2749131730015506, 0.22509866500331555, 0.22097308899537893, 0.2001992059958866, 0.2992942499986384, 0.25094765800167806, 0.2059631750016706, 0.23412706899398472, 0.2757518889993662, 0.27056383099989034, 0.23540899199724663, 0.30310029599786503, 0.25737640500301495, 0.34433510700182524, 0.27984052499959944, 0.2526490759992157, 0.30607192799652694, 0.3482226210035151, 0.2557618279970484, 0.301332087998162, 0.316861268998764, 0.3528837800040492, 0.26867042400408536]",79,518.7467708640033,None,1,1,518.7467708640033,None,You did not win or lose anything!,5.6,3,63,0.5,53.16455696202531,0.2580984658336439,[],49.99999999999999,63,3,519.2305098900033,None,0.26867042400408536,,,,,,,1,Scanner,0.35,2019_Aug_14_1139,MID,3.1.5,59.9010861757641,
SmallPun,3500,1,0,1,0,0,29,29,29,,,,,,,,520.7139629649973,None,3500,522.7478292220039,None,None,522.7478292220039,None,1.5,"[0.2542431369947735, 0.2521261920046527, 0.2278964819997782, 0.028245911998965312, 0.24655221500142943, 0.2810867330044857, 0.24129695699957665, 0.24258045100577874, 0.13636809099989478, 0.2802276790025644, 0.24199843099631835, 0.2582734710013028, 0.23398807900230167, 0.23995493500115117, 0.3234939550020499, 0.28956394200213253, 0.24181299500196474, 0.30217760000232374, 0.2379019639993203, 0.2749131730015506, 0.22509866500331555, 0.22097308899537893, 0.2001992059958866, 0.2992942499986384, 0.25094765800167806, 0.2059631750016706, 0.23412706899398472, 0.2757518889993662, 0.27056383099989034, 0.23540899199724663, 0.30310029599786503, 0.25737640500301495, 0.34433510700182524, 0.27984052499959944, 0.2526490759992157, 0.30607192799652694, 0.3482226210035151, 0.2557618279970484, 0.301332087998162, 0.316861268998764, 0.3528837800040492, 0.26867042400408536, 0.250936295997235]",80,526.2605734390017,None,1,1,526.2605734390017,None,You did not lose $0.20!,5.6,5,64,0.5,53.75,0.25793190374442504,[1],49.99999999999999,63,3,526.7147331090018,None,0.250936295997235,,,,,,,1,Scanner,0.35,2019_Aug_14_1139,MID,3.1.5,59.9010861757641,
Triangle,2000,1,0,1,0,0,30,30,30,,,,,,,,528.2142880320025,None,2000,530.2481767569989,None,None,530.2481767569989,None,1.5,"[0.2542431369947735, 0.2521261920046527, 0.2278964819997782, 0.028245911998965312, 0.24655221500142943, 0.2810867330044857, 0.24129695699957665, 0.24258045100577874, 0.13636809099989478, 0.2802276790025644, 0.24199843099631835, 0.2582734710013028, 0.23398807900230167, 0.23995493500115117, 0.3234939550020499, 0.28956394200213253, 0.24181299500196474, 0.30217760000232374, 0.2379019639993203, 0.2749131730015506, 0.22509866500331555, 0.22097308899537893, 0.2001992059958866, 0.2992942499986384, 0.25094765800167806, 0.2059631750016706, 0.23412706899398472, 0.2757518889993662, 0.27056383099989034, 0.23540899199724663, 0.30310029599786503, 0.25737640500301495, 0.34433510700182524, 0.27984052499959944, 0.2526490759992157, 0.30607192799652694, 0.3482226210035151, 0.2557618279970484, 0.301332087998162, 0.316861268998764, 0.3528837800040492, 0.26867042400408536, 0.250936295997235, 0.3264740540034836]",81,532.2492168800018,None,1,1,532.2492168800018,None,You did not win or lose anything!,5.6,3,64,0.5,54.32098765432099,0.25948967988667637,[1],49.99999999999999,63,3,532.7145896290021,None,0.3264740540034836,,,,,,,1,Scanner,0.35,2019_Aug_14_1139,MID,3.1.5,59.9010861757641,
SmallPun,1500,1,0,1,0,0,31,31,31,,,,,,,,534.2153418980015,None,1500,536.2559609669988,None,None,536.2559609669988,None,1.5,"[0.2542431369947735, 0.2521261920046527, 0.2278964819997782, 0.028245911998965312, 0.24655221500142943, 0.2810867330044857, 0.24129695699957665, 0.24258045100577874, 0.13636809099989478, 0.2802276790025644, 0.24199843099631835, 0.2582734710013028, 0.23398807900230167, 0.23995493500115117, 0.3234939550020499, 0.28956394200213253, 0.24181299500196474, 0.30217760000232374, 0.2379019639993203, 0.2749131730015506, 0.22509866500331555, 0.22097308899537893, 0.2001992059958866, 0.2992942499986384, 0.25094765800167806, 0.2059631750016706, 0.23412706899398472, 0.2757518889993662, 0.27056383099989034, 0.23540899199724663, 0.30310029599786503, 0.25737640500301495, 0.34433510700182524, 0.27984052499959944, 0.2526490759992157, 0.30607192799652694, 0.3482226210035151, 0.2557618279970484, 0.301332087998162, 0.316861268998764, 0.3528837800040492, 0.26867042400408536, 0.250936295997235, 0.3264740540034836, 0.30952099400019506]",82,537.7620700359985,None,1,1,537.7620700359985,None,You did not lose $0.20!,5.6,5,65,0.5,54.87804878048781,0.2606014868669768,"[1, 1]",49.99999999999999,63,3,538.2339929660011,None,0.30952099400019506,,,,,,,1,Scanner,0.35,2019_Aug_14_1139,MID,3.1.5,59.9010861757641,
Triangle,3500,1,0,1,0,0,32,32,32,,,,,,,,539.7171680410029,None,3500,541.7501536060008,None,None,541.7501536060008,None,1.5,"[0.2542431369947735, 0.2521261920046527, 0.2278964819997782, 0.028245911998965312, 0.24655221500142943, 0.2810867330044857, 0.24129695699957665, 0.24258045100577874, 0.13636809099989478, 0.2802276790025644, 0.24199843099631835, 0.2582734710013028, 0.23398807900230167, 0.23995493500115117, 0.3234939550020499, 0.28956394200213253, 0.24181299500196474, 0.30217760000232374, 0.2379019639993203, 0.2749131730015506, 0.22509866500331555, 0.22097308899537893, 0.2001992059958866, 0.2992942499986384, 0.25094765800167806, 0.2059631750016706, 0.23412706899398472, 0.2757518889993662, 0.27056383099989034, 0.23540899199724663, 0.30310029599786503, 0.25737640500301495, 0.34433510700182524, 0.27984052499959944, 0.2526490759992157, 0.30607192799652694, 0.3482226210035151, 0.2557618279970484, 0.301332087998162, 0.316861268998764, 0.3528837800040492, 0.26867042400408536, 0.250936295997235, 0.3264740540034836, 0.30952099400019506, 0.29471681299764896]",83,545.2567363389971,None,1,1,545.2567363389971,None,You did not win or lose anything!,5.6,3,65,0.5,55.42168674698795,0.26134312439155666,"[1, 1]",49.99999999999999,63,3,545.7344680570022,None,0.29471681299764896,,,,,,,1,Scanner,0.35,2019_Aug_14_1139,MID,3.1.5,59.9010861757641,
LgReward,3500,1,0,1,0,0,33,33,33,,,,,,,,547.2648577299988,None,3500,549.2508598220011,None,None,549.2508598220011,None,1.5,"[0.2542431369947735, 0.2521261920046527, 0.2278964819997782, 0.028245911998965312, 0.24655221500142943, 0.2810867330044857, 0.24129695699957665, 0.24258045100577874, 0.13636809099989478, 0.2802276790025644, 0.24199843099631835, 0.2582734710013028, 0.23398807900230167, 0.23995493500115117, 0.3234939550020499, 0.28956394200213253, 0.24181299500196474, 0.30217760000232374, 0.2379019639993203, 0.2749131730015506, 0.22509866500331555, 0.22097308899537893, 0.2001992059958866, 0.2992942499986384, 0.25094765800167806, 0.2059631750016706, 0.23412706899398472, 0.2757518889993662, 0.27056383099989034, 0.23540899199724663, 0.30310029599786503, 0.25737640500301495, 0.34433510700182524, 0.27984052499959944, 0.2526490759992157, 0.30607192799652694, 0.3482226210035151, 0.2557618279970484, 0.301332087998162, 0.316861268998764, 0.3528837800040492, 0.26867042400408536, 0.250936295997235, 0.3264740540034836, 0.30952099400019506, 0.29471681299764896, 0.3106946350017097]",84,552.7768438950006,None,1,1,552.7768438950006,None,You won $5.00!,10.6,1,66,0.47,55.952380952380956,0.2623931565321982,[],83.33333333333333,66,3,553.2176910639973,None,0.3106946350017097,Adjusting RT...,,,,,,1,Scanner,0.35,2019_Aug_14_1139,MID,3.1.5,59.9010861757641,
SmallReward,2000,1,0,1,0,0,34,34,34,,,,,,,,554.7348372889974,None,2000,556.7523088730013,None,None,556.7523088730013,None,1.53,"[0.2542431369947735, 0.2521261920046527, 0.2278964819997782, 0.028245911998965312, 0.24655221500142943, 0.2810867330044857, 0.24129695699957665, 0.24258045100577874, 0.13636809099989478, 0.2802276790025644, 0.24199843099631835, 0.2582734710013028, 0.23398807900230167, 0.23995493500115117, 0.3234939550020499, 0.28956394200213253, 0.24181299500196474, 0.30217760000232374, 0.2379019639993203, 0.2749131730015506, 0.22509866500331555, 0.22097308899537893, 0.2001992059958866, 0.2992942499986384, 0.25094765800167806, 0.2059631750016706, 0.23412706899398472, 0.2757518889993662, 0.27056383099989034, 0.23540899199724663, 0.30310029599786503, 0.25737640500301495, 0.34433510700182524, 0.27984052499959944, 0.2526490759992157, 0.30607192799652694, 0.3482226210035151, 0.2557618279970484, 0.301332087998162, 0.316861268998764, 0.3528837800040492, 0.26867042400408536, 0.250936295997235, 0.3264740540034836, 0.30952099400019506, 0.29471681299764896, 0.3106946350017097]",85,558.7693241800007,None,None,0,558.7693241800007,None,You did not win $0.20!,10.6,2,67,0.47,55.294117647058826,0.2623931565321982,[0],83.33333333333333,66,3,559.1853983890032,None,,,,,,,,1,Scanner,0.35,2019_Aug_14_1139,MID,3.1.5,59.9010861757641,
Triangle,1500,1,0,1,0,0,35,35,35,,,,,,,,560.7191364550017,None,1500,562.7532936720017,None,None,562.7532936720017,None,1.53,"[0.2542431369947735, 0.2521261920046527, 0.2278964819997782, 0.028245911998965312, 0.24655221500142943, 0.2810867330044857, 0.24129695699957665, 0.24258045100577874, 0.13636809099989478, 0.2802276790025644, 0.24199843099631835, 0.2582734710013028, 0.23398807900230167, 0.23995493500115117, 0.3234939550020499, 0.28956394200213253, 0.24181299500196474, 0.30217760000232374, 0.2379019639993203, 0.2749131730015506, 0.22509866500331555, 0.22097308899537893, 0.2001992059958866, 0.2992942499986384, 0.25094765800167806, 0.2059631750016706, 0.23412706899398472, 0.2757518889993662, 0.27056383099989034, 0.23540899199724663, 0.30310029599786503, 0.25737640500301495, 0.34433510700182524, 0.27984052499959944, 0.2526490759992157, 0.30607192799652694, 0.3482226210035151, 0.2557618279970484, 0.301332087998162, 0.316861268998764, 0.3528837800040492, 0.26867042400408536, 0.250936295997235, 0.3264740540034836, 0.30952099400019506, 0.29471681299764896, 0.3106946350017097, 0.3339910400027293]",86,564.2659382370039,None,1,1,564.2659382370039,None,You did not win or lose anything!,10.6,3,67,0.47,55.81395348837209,0.2638847791045009,[0],83.33333333333333,66,3,564.7024681449984,None,0.3339910400027293,,,,,,,1,Scanner,0.35,2019_Aug_14_1139,MID,3.1.5,59.9010861757641,
LgPun,2000,1,0,1,0,0,36,36,36,,,,,,,,566.2198845090024,None,2000,568.2535907089987,None,None,568.2535907089987,None,1.53,"[0.2542431369947735, 0.2521261920046527, 0.2278964819997782, 0.028245911998965312, 0.24655221500142943, 0.2810867330044857, 0.24129695699957665, 0.24258045100577874, 0.13636809099989478, 0.2802276790025644, 0.24199843099631835, 0.2582734710013028, 0.23398807900230167, 0.23995493500115117, 0.3234939550020499, 0.28956394200213253, 0.24181299500196474, 0.30217760000232374, 0.2379019639993203, 0.2749131730015506, 0.22509866500331555, 0.22097308899537893, 0.2001992059958866, 0.2992942499986384, 0.25094765800167806, 0.2059631750016706, 0.23412706899398472, 0.2757518889993662, 0.27056383099989034, 0.23540899199724663, 0.30310029599786503, 0.25737640500301495, 0.34433510700182524, 0.27984052499959944, 0.2526490759992157, 0.30607192799652694, 0.3482226210035151, 0.2557618279970484, 0.301332087998162, 0.316861268998764, 0.3528837800040492, 0.26867042400408536, 0.250936295997235, 0.3264740540034836, 0.30952099400019506, 0.29471681299764896, 0.3106946350017097, 0.3339910400027293]",87,570.2538960640013,None,None,0,570.2538960640013,None,You lost $5.00!,5.6,4,68,0.47,55.172413793103445,0.2638847791045009,"[0, 0]",83.33333333333333,66,3,570.686613816004,None,,,,,,,,1,Scanner,0.35,2019_Aug_14_1139,MID,3.1.5,59.9010861757641,
LgReward,1500,1,0,1,0,0,37,37,37,,,,,,,,572.237053238001,None,1500,574.2547159890019,None,None,574.2547159890019,None,1.53,"[0.2542431369947735, 0.2521261920046527, 0.2278964819997782, 0.028245911998965312, 0.24655221500142943, 0.2810867330044857, 0.24129695699957665, 0.24258045100577874, 0.13636809099989478, 0.2802276790025644, 0.24199843099631835, 0.2582734710013028, 0.23398807900230167, 0.23995493500115117, 0.3234939550020499, 0.28956394200213253, 0.24181299500196474, 0.30217760000232374, 0.2379019639993203, 0.2749131730015506, 0.22509866500331555, 0.22097308899537893, 0.2001992059958866, 0.2992942499986384, 0.25094765800167806, 0.2059631750016706, 0.23412706899398472, 0.2757518889993662, 0.27056383099989034, 0.23540899199724663, 0.30310029599786503, 0.25737640500301495, 0.34433510700182524, 0.27984052499959944, 0.2526490759992157, 0.30607192799652694, 0.3482226210035151, 0.2557618279970484, 0.301332087998162, 0.316861268998764, 0.3528837800040492, 0.26867042400408536, 0.250936295997235, 0.3264740540034836, 0.30952099400019506, 0.29471681299764896, 0.3106946350017097, 0.3339910400027293, 0.2908364499962772]",88,575.7714809949975,None,1,1,575.7714809949975,None,You won $5.00!,10.6,1,69,0.44999999999999996,55.68181818181818,0.2644348132043331,[],66.66666666666666,69,3,576.1878321160038,None,0.2908364499962772,Adjusting RT...,,,,,,1,Scanner,0.35,2019_Aug_14_1139,MID,3.1.5,59.9010861757641,
LgPun,1500,1,0,1,0,0,38,38,38,,,,,,,,577.7220409680012,None,1500,579.7545817299979,None,None,579.7545817299979,None,1.55,"[0.2542431369947735, 0.2521261920046527, 0.2278964819997782, 0.028245911998965312, 0.24655221500142943, 0.2810867330044857, 0.24129695699957665, 0.24258045100577874, 0.13636809099989478, 0.2802276790025644, 0.24199843099631835, 0.2582734710013028, 0.23398807900230167, 0.23995493500115117, 0.3234939550020499, 0.28956394200213253, 0.24181299500196474, 0.30217760000232374, 0.2379019639993203, 0.2749131730015506, 0.22509866500331555, 0.22097308899537893, 0.2001992059958866, 0.2992942499986384, 0.25094765800167806, 0.2059631750016706, 0.23412706899398472, 0.2757518889993662, 0.27056383099989034, 0.23540899199724663, 0.30310029599786503, 0.25737640500301495, 0.34433510700182524, 0.27984052499959944, 0.2526490759992157, 0.30607192799652694, 0.3482226210035151, 0.2557618279970484, 0.301332087998162, 0.316861268998764, 0.3528837800040492, 0.26867042400408536, 0.250936295997235, 0.3264740540034836, 0.30952099400019506, 0.29471681299764896, 0.3106946350017097, 0.3339910400027293, 0.2908364499962772, 0.3114703230021405]",89,581.2547004759981,None,1,1,581.2547004759981,None,You did not lose $5.00!,10.6,4,70,0.44999999999999996,56.17977528089888,0.26537552340028925,[1],66.66666666666666,69,3,581.6894015529979,None,0.3114703230021405,,,,,,,1,Scanner,0.35,2019_Aug_14_1139,MID,3.1.5,59.9010861757641,
Triangle,1500,1,0,1,0,0,39,39,39,,,,,,,,583.2233313190009,None,1500,585.2552805950036,None,None,585.2552805950036,None,1.55,"[0.2542431369947735, 0.2521261920046527, 0.2278964819997782, 0.028245911998965312, 0.24655221500142943, 0.2810867330044857, 0.24129695699957665, 0.24258045100577874, 0.13636809099989478, 0.2802276790025644, 0.24199843099631835, 0.2582734710013028, 0.23398807900230167, 0.23995493500115117, 0.3234939550020499, 0.28956394200213253, 0.24181299500196474, 0.30217760000232374, 0.2379019639993203, 0.2749131730015506, 0.22509866500331555, 0.22097308899537893, 0.2001992059958866, 0.2992942499986384, 0.25094765800167806, 0.2059631750016706, 0.23412706899398472, 0.2757518889993662, 0.27056383099989034, 0.23540899199724663, 0.30310029599786503, 0.25737640500301495, 0.34433510700182524, 0.27984052499959944, 0.2526490759992157, 0.30607192799652694, 0.3482226210035151, 0.2557618279970484, 0.301332087998162, 0.316861268998764, 0.3528837800040492, 0.26867042400408536, 0.250936295997235, 0.3264740540034836, 0.30952099400019506, 0.29471681299764896, 0.3106946350017097, 0.3339910400027293, 0.2908364499962772, 0.3114703230021405, 0.35644411200337345]",90,586.7670739169989,None,1,1,586.7670739169989,None,You did not win or lose anything!,10.6,3,70,0.44999999999999996,56.666666666666664,0.2671611820003497,[1],66.66666666666666,69,3,587.1719194480029,None,0.35644411200337345,,,,,,,1,Scanner,0.35,2019_Aug_14_1139,MID,3.1.5,59.9010861757641,
LgReward,2000,1,0,1,0,0,40,40,40,,,,,,,,588.739503220997,None,2000,590.7558152830024,None,None,590.7558152830024,None,1.55,"[0.2542431369947735, 0.2521261920046527, 0.2278964819997782, 0.028245911998965312, 0.24655221500142943, 0.2810867330044857, 0.24129695699957665, 0.24258045100577874, 0.13636809099989478, 0.2802276790025644, 0.24199843099631835, 0.2582734710013028, 0.23398807900230167, 0.23995493500115117, 0.3234939550020499, 0.28956394200213253, 0.24181299500196474, 0.30217760000232374, 0.2379019639993203, 0.2749131730015506, 0.22509866500331555, 0.22097308899537893, 0.2001992059958866, 0.2992942499986384, 0.25094765800167806, 0.2059631750016706, 0.23412706899398472, 0.2757518889993662, 0.27056383099989034, 0.23540899199724663, 0.30310029599786503, 0.25737640500301495, 0.34433510700182524, 0.27984052499959944, 0.2526490759992157, 0.30607192799652694, 0.3482226210035151, 0.2557618279970484, 0.301332087998162, 0.316861268998764, 0.3528837800040492, 0.26867042400408536, 0.250936295997235, 0.3264740540034836, 0.30952099400019506, 0.29471681299764896, 0.3106946350017097, 0.3339910400027293, 0.2908364499962772, 0.3114703230021405, 0.35644411200337345, 0.2809488750062883]",91,592.7733859340005,None,1,1,592.7733859340005,None,You won $5.00!,15.6,1,71,0.44999999999999996,57.14285714285714,0.2674263299427716,"[1, 1]",66.66666666666666,69,3,593.1727697789975,None,0.2809488750062883,,,,,,,1,Scanner,0.35,2019_Aug_14_1139,MID,3.1.5,59.9010861757641,
LgPun,1500,1,0,1,0,0,41,41,41,,,,,,,,594.7236677090041,None,1500,596.7568252659985,None,None,596.7568252659985,None,1.55,"[0.2542431369947735, 0.2521261920046527, 0.2278964819997782, 0.028245911998965312, 0.24655221500142943, 0.2810867330044857, 0.24129695699957665, 0.24258045100577874, 0.13636809099989478, 0.2802276790025644, 0.24199843099631835, 0.2582734710013028, 0.23398807900230167, 0.23995493500115117, 0.3234939550020499, 0.28956394200213253, 0.24181299500196474, 0.30217760000232374, 0.2379019639993203, 0.2749131730015506, 0.22509866500331555, 0.22097308899537893, 0.2001992059958866, 0.2992942499986384, 0.25094765800167806, 0.2059631750016706, 0.23412706899398472, 0.2757518889993662, 0.27056383099989034, 0.23540899199724663, 0.30310029599786503, 0.25737640500301495, 0.34433510700182524, 0.27984052499959944, 0.2526490759992157, 0.30607192799652694, 0.3482226210035151, 0.2557618279970484, 0.301332087998162, 0.316861268998764, 0.3528837800040492, 0.26867042400408536, 0.250936295997235, 0.3264740540034836, 0.30952099400019506, 0.29471681299764896, 0.3106946350017097, 0.3339910400027293, 0.2908364499962772, 0.3114703230021405, 0.35644411200337345, 0.2809488750062883, 0.3097993299961672]",92,598.2576767790015,None,1,1,598.2576767790015,None,You did not lose $5.00!,15.6,4,72,0.42999999999999994,57.608695652173914,0.2682258205098168,[],66.66666666666666,72,3,598.674575072997,None,0.3097993299961672,Adjusting RT...,,,,,,1,Scanner,0.35,2019_Aug_14_1139,MID,3.1.5,59.9010861757641,
SmallReward,1500,1,0,1,0,0,42,42,42,,,,,,,,600.2474010160004,None,1500,602.2580514549991,None,None,602.2580514549991,None,1.57,"[0.2542431369947735, 0.2521261920046527, 0.2278964819997782, 0.028245911998965312, 0.24655221500142943, 0.2810867330044857, 0.24129695699957665, 0.24258045100577874, 0.13636809099989478, 0.2802276790025644, 0.24199843099631835, 0.2582734710013028, 0.23398807900230167, 0.23995493500115117, 0.3234939550020499, 0.28956394200213253, 0.24181299500196474, 0.30217760000232374, 0.2379019639993203, 0.2749131730015506, 0.22509866500331555, 0.22097308899537893, 0.2001992059958866, 0.2992942499986384, 0.25094765800167806, 0.2059631750016706, 0.23412706899398472, 0.2757518889993662, 0.27056383099989034, 0.23540899199724663, 0.30310029599786503, 0.25737640500301495, 0.34433510700182524, 0.27984052499959944, 0.2526490759992157, 0.30607192799652694, 0.3482226210035151, 0.2557618279970484, 0.301332087998162, 0.316861268998764, 0.3528837800040492, 0.26867042400408536, 0.250936295997235, 0.3264740540034836, 0.30952099400019506, 0.29471681299764896, 0.3106946350017097, 0.3339910400027293, 0.2908364499962772, 0.3114703230021405, 0.35644411200337345, 0.2809488750062883, 0.3097993299961672, 0.27283278099639574]",93,603.7831721749972,None,1,1,603.7831721749972,None,You won $0.20!,15.799999999999999,2,73,0.42999999999999994,58.06451612903226,0.2683111345929016,[1],66.66666666666666,72,3,604.1751437700004,None,0.27283278099639574,,,,,,,1,Scanner,0.35,2019_Aug_14_1139,MID,3.1.5,59.9010861757641,
SmallPun,1500,1,0,1,0,0,43,43,43,,,,,,,,605.7249770510025,None,1500,607.7585561989981,None,None,607.7585561989981,None,1.57,"[0.2542431369947735, 0.2521261920046527, 0.2278964819997782, 0.028245911998965312, 0.24655221500142943, 0.2810867330044857, 0.24129695699957665, 0.24258045100577874, 0.13636809099989478, 0.2802276790025644, 0.24199843099631835, 0.2582734710013028, 0.23398807900230167, 0.23995493500115117, 0.3234939550020499, 0.28956394200213253, 0.24181299500196474, 0.30217760000232374, 0.2379019639993203, 0.2749131730015506, 0.22509866500331555, 0.22097308899537893, 0.2001992059958866, 0.2992942499986384, 0.25094765800167806, 0.2059631750016706, 0.23412706899398472, 0.2757518889993662, 0.27056383099989034, 0.23540899199724663, 0.30310029599786503, 0.25737640500301495, 0.34433510700182524, 0.27984052499959944, 0.2526490759992157, 0.30607192799652694, 0.3482226210035151, 0.2557618279970484, 0.301332087998162, 0.316861268998764, 0.3528837800040492, 0.26867042400408536, 0.250936295997235, 0.3264740540034836, 0.30952099400019506, 0.29471681299764896, 0.3106946350017097, 0.3339910400027293, 0.2908364499962772, 0.3114703230021405, 0.35644411200337345, 0.2809488750062883, 0.3097993299961672, 0.27283278099639574]",94,609.2593268560013,None,None,0,609.2593268560013,None,You lost $0.20!,15.6,5,74,0.42999999999999994,57.446808510638306,0.2683111345929016,"[1, 0]",66.66666666666666,72,3,609.6749015270034,None,,,,,,,,1,Scanner,0.35,2019_Aug_14_1139,MID,3.1.5,59.9010861757641,
SmallPun,2500,1,0,1,0,0,44,44,44,,,,,,,,611.2272758949985,None,2500,613.259730056001,None,None,613.259730056001,None,1.57,"[0.2542431369947735, 0.2521261920046527, 0.2278964819997782, 0.028245911998965312, 0.24655221500142943, 0.2810867330044857, 0.24129695699957665, 0.24258045100577874, 0.13636809099989478, 0.2802276790025644, 0.24199843099631835, 0.2582734710013028, 0.23398807900230167, 0.23995493500115117, 0.3234939550020499, 0.28956394200213253, 0.24181299500196474, 0.30217760000232374, 0.2379019639993203, 0.2749131730015506, 0.22509866500331555, 0.22097308899537893, 0.2001992059958866, 0.2992942499986384, 0.25094765800167806, 0.2059631750016706, 0.23412706899398472, 0.2757518889993662, 0.27056383099989034, 0.23540899199724663, 0.30310029599786503, 0.25737640500301495, 0.34433510700182524, 0.27984052499959944, 0.2526490759992157, 0.30607192799652694, 0.3482226210035151, 0.2557618279970484, 0.301332087998162, 0.316861268998764, 0.3528837800040492, 0.26867042400408536, 0.250936295997235, 0.3264740540034836, 0.30952099400019506, 0.29471681299764896, 0.3106946350017097, 0.3339910400027293, 0.2908364499962772, 0.3114703230021405, 0.35644411200337345, 0.2809488750062883, 0.3097993299961672, 0.27283278099639574, 0.21941339299519313]",95,615.7721666680009,None,1,1,615.7721666680009,None,You did not lose $0.20!,15.6,5,75,0.3999999999999999,57.89473684210527,0.26742208474567053,[],83.33333333333333,75,3,616.1773045480004,None,0.21941339299519313,Adjusting RT...,,,,,,1,Scanner,0.35,2019_Aug_14_1139,MID,3.1.5,59.9010861757641,
LgPun,1500,1,0,1,0,0,45,45,45,,,,,,,,617.7271144070037,None,1500,619.7600770479985,None,None,619.7600770479985,None,1.6,"[0.2542431369947735, 0.2521261920046527, 0.2278964819997782, 0.028245911998965312, 0.24655221500142943, 0.2810867330044857, 0.24129695699957665, 0.24258045100577874, 0.13636809099989478, 0.2802276790025644, 0.24199843099631835, 0.2582734710013028, 0.23398807900230167, 0.23995493500115117, 0.3234939550020499, 0.28956394200213253, 0.24181299500196474, 0.30217760000232374, 0.2379019639993203, 0.2749131730015506, 0.22509866500331555, 0.22097308899537893, 0.2001992059958866, 0.2992942499986384, 0.25094765800167806, 0.2059631750016706, 0.23412706899398472, 0.2757518889993662, 0.27056383099989034, 0.23540899199724663, 0.30310029599786503, 0.25737640500301495, 0.34433510700182524, 0.27984052499959944, 0.2526490759992157, 0.30607192799652694, 0.3482226210035151, 0.2557618279970484, 0.301332087998162, 0.316861268998764, 0.3528837800040492, 0.26867042400408536, 0.250936295997235, 0.3264740540034836, 0.30952099400019506, 0.29471681299764896, 0.3106946350017097, 0.3339910400027293, 0.2908364499962772, 0.3114703230021405, 0.35644411200337345, 0.2809488750062883, 0.3097993299961672, 0.27283278099639574, 0.21941339299519313, 0.29473426900221966]",96,621.2737976450007,None,1,1,621.2737976450007,None,You did not lose $5.00!,15.6,4,76,0.3999999999999999,58.333333333333336,0.2679098023216803,[1],83.33333333333333,75,3,621.643285307,None,0.29473426900221966,,,,,,,1,Scanner,0.35,2019_Aug_14_1139,MID,3.1.5,59.9010861757641,
LgReward,1500,1,0,1,0,0,46,46,46,,,,,,,,623.2440353150014,None,1500,625.2603110889977,None,None,625.2603110889977,None,1.6,"[0.2542431369947735, 0.2521261920046527, 0.2278964819997782, 0.028245911998965312, 0.24655221500142943, 0.2810867330044857, 0.24129695699957665, 0.24258045100577874, 0.13636809099989478, 0.2802276790025644, 0.24199843099631835, 0.2582734710013028, 0.23398807900230167, 0.23995493500115117, 0.3234939550020499, 0.28956394200213253, 0.24181299500196474, 0.30217760000232374, 0.2379019639993203, 0.2749131730015506, 0.22509866500331555, 0.22097308899537893, 0.2001992059958866, 0.2992942499986384, 0.25094765800167806, 0.2059631750016706, 0.23412706899398472, 0.2757518889993662, 0.27056383099989034, 0.23540899199724663, 0.30310029599786503, 0.25737640500301495, 0.34433510700182524, 0.27984052499959944, 0.2526490759992157, 0.30607192799652694, 0.3482226210035151, 0.2557618279970484, 0.301332087998162, 0.316861268998764, 0.3528837800040492, 0.26867042400408536, 0.250936295997235, 0.3264740540034836, 0.30952099400019506, 0.29471681299764896, 0.3106946350017097, 0.3339910400027293, 0.2908364499962772, 0.3114703230021405, 0.35644411200337345, 0.2809488750062883, 0.3097993299961672, 0.27283278099639574, 0.21941339299519313, 0.29473426900221966]",97,626.7773258930029,None,None,0,626.7773258930029,None,You did not win $5.00!,15.6,1,77,0.3999999999999999,57.73195876288659,0.2679098023216803,"[1, 0]",83.33333333333333,75,3,627.1444494230018,None,,,,,,,,1,Scanner,0.35,2019_Aug_14_1139,MID,3.1.5,59.9010861757641,
SmallReward,1500,1,0,1,0,0,47,47,47,,,,,,,,628.7513856349979,None,1500,630.7611090130013,None,None,630.7611090130013,None,1.6,"[0.2542431369947735, 0.2521261920046527, 0.2278964819997782, 0.028245911998965312, 0.24655221500142943, 0.2810867330044857, 0.24129695699957665, 0.24258045100577874, 0.13636809099989478, 0.2802276790025644, 0.24199843099631835, 0.2582734710013028, 0.23398807900230167, 0.23995493500115117, 0.3234939550020499, 0.28956394200213253, 0.24181299500196474, 0.30217760000232374, 0.2379019639993203, 0.2749131730015506, 0.22509866500331555, 0.22097308899537893, 0.2001992059958866, 0.2992942499986384, 0.25094765800167806, 0.2059631750016706, 0.23412706899398472, 0.2757518889993662, 0.27056383099989034, 0.23540899199724663, 0.30310029599786503, 0.25737640500301495, 0.34433510700182524, 0.27984052499959944, 0.2526490759992157, 0.30607192799652694, 0.3482226210035151, 0.2557618279970484, 0.301332087998162, 0.316861268998764, 0.3528837800040492, 0.26867042400408536, 0.250936295997235, 0.3264740540034836, 0.30952099400019506, 0.29471681299764896, 0.3106946350017097, 0.3339910400027293, 0.2908364499962772, 0.3114703230021405, 0.35644411200337345, 0.2809488750062883, 0.3097993299961672, 0.27283278099639574, 0.21941339299519313, 0.29473426900221966]",98,632.2908973049998,None,None,0,632.2908973049998,None,You did not win $0.20!,15.6,2,78,0.41999999999999993,57.14285714285714,0.2679098023216803,[],49.99999999999999,78,3,632.6447955359981,None,,Adjusting RT...,,,,,,1,Scanner,0.35,2019_Aug_14_1139,MID,3.1.5,59.9010861757641,
SmallPun,2000,1,0,1,0,0,48,48,48,,,,,,,,634.2282093710019,None,2000,636.262025830998,None,None,636.262025830998,None,1.58,"[0.2542431369947735, 0.2521261920046527, 0.2278964819997782, 0.028245911998965312, 0.24655221500142943, 0.2810867330044857, 0.24129695699957665, 0.24258045100577874, 0.13636809099989478, 0.2802276790025644, 0.24199843099631835, 0.2582734710013028, 0.23398807900230167, 0.23995493500115117, 0.3234939550020499, 0.28956394200213253, 0.24181299500196474, 0.30217760000232374, 0.2379019639993203, 0.2749131730015506, 0.22509866500331555, 0.22097308899537893, 0.2001992059958866, 0.2992942499986384, 0.25094765800167806, 0.2059631750016706, 0.23412706899398472, 0.2757518889993662, 0.27056383099989034, 0.23540899199724663, 0.30310029599786503, 0.25737640500301495, 0.34433510700182524, 0.27984052499959944, 0.2526490759992157, 0.30607192799652694, 0.3482226210035151, 0.2557618279970484, 0.301332087998162, 0.316861268998764, 0.3528837800040492, 0.26867042400408536, 0.250936295997235, 0.3264740540034836, 0.30952099400019506, 0.29471681299764896, 0.3106946350017097, 0.3339910400027293, 0.2908364499962772, 0.3114703230021405, 0.35644411200337345, 0.2809488750062883, 0.3097993299961672, 0.27283278099639574, 0.21941339299519313, 0.29473426900221966, 0.2994973180029774]",99,638.2627978719975,None,1,1,638.2627978719975,None,You did not lose $0.20!,15.6,5,79,0.41999999999999993,57.57575757575758,0.2684639692634575,[1],49.99999999999999,78,3,638.6614066170005,None,0.2994973180029774,,,,,,,1,Scanner,0.35,2019_Aug_14_1139,MID,3.1.5,59.9010861757641,
LgPun,4000,1,0,1,0,0,49,49,49,,,,,,,,640.2311568820005,None,4000,642.2632685330027,None,None,642.2632685330027,None,1.58,"[0.2542431369947735, 0.2521261920046527, 0.2278964819997782, 0.028245911998965312, 0.24655221500142943, 0.2810867330044857, 0.24129695699957665, 0.24258045100577874, 0.13636809099989478, 0.2802276790025644, 0.24199843099631835, 0.2582734710013028, 0.23398807900230167, 0.23995493500115117, 0.3234939550020499, 0.28956394200213253, 0.24181299500196474, 0.30217760000232374, 0.2379019639993203, 0.2749131730015506, 0.22509866500331555, 0.22097308899537893, 0.2001992059958866, 0.2992942499986384, 0.25094765800167806, 0.2059631750016706, 0.23412706899398472, 0.2757518889993662, 0.27056383099989034, 0.23540899199724663, 0.30310029599786503, 0.25737640500301495, 0.34433510700182524, 0.27984052499959944, 0.2526490759992157, 0.30607192799652694, 0.3482226210035151, 0.2557618279970484, 0.301332087998162, 0.316861268998764, 0.3528837800040492, 0.26867042400408536, 0.250936295997235, 0.3264740540034836, 0.30952099400019506, 0.29471681299764896, 0.3106946350017097, 0.3339910400027293, 0.2908364499962772, 0.3114703230021405, 0.35644411200337345, 0.2809488750062883, 0.3097993299961672, 0.27283278099639574, 0.21941339299519313, 0.29473426900221966, 0.2994973180029774]",100,646.2768769730028,None,None,0,646.2768769730028,None,You lost $5.00!,10.6,4,80,0.41999999999999993,56.99999999999999,0.2684639692634575,"[1, 0]",49.99999999999999,78,3,646.6474401360028,None,,,,,,,,1,Scanner,0.35,2019_Aug_14_1139,MID,3.1.5,59.9010861757641,
,,1,0,1,0,,,,,,,,,,,,,,,,,,,,,,,,,,,,,,,,,,,,,,,,,,,,,,,,,1,Scanner,0.35,2019_Aug_14_1139,MID,3.1.5,59.9010861757641,
,,,,,,,,,,,,,,,,,,,,,,,,,,,,,,,,,,,,,,,,,,,,,,,,,,648.2305972859976,None,653.2320033549986,None,,,,,,,,
