Condition,FixationDur,textPrompt,runs.thisRepN,runs.thisTrialN,runs.thisN,runs.thisIndex,trials.thisRepN,trials.thisTrialN,trials.thisN,trials.thisIndex,instructFig.started,instructFig.stopped,text_2.started,text_2.stopped,PrepFixation.started,PrepFixation.stopped,TrialOrder,text.started,text.stopped,key_resp_2.keys,key_resp_2.started,key_resp_2.stopped,cueImage.started,cueImage.stopped,FixationDur,fixation.started,fixation.stopped,fixationResp.keys,fixationResp.started,fixationResp.stopped,feedbackDur,rt_list,Trial counter,Target.started,Target.stopped,probeResp.keys,probeResp.corr,probeResp.rt,probeResp.started,probeResp.stopped,msg,TrackEarnings,TrialType,NonNeutralTrialsNum,probeDur,percentacc_total,meanrt,UserAcc,Acc,AdjTrial,AdjTrialInc,feedbackMsg.started,feedbackMsg.stopped,AdjRTmsg,fixationResp.rt,polygon.started,polygon.stopped,participant,prac_or_scan,practiceRT,date,expName,psychopyVersion,frameRate,
SmallReward,2000,win $0.20,0,0,0,0,0,0,0,0,25.02347401699808,None,None,None,26.656193995004287,None,TimeVersion_practice.csv,28.70674892199895,None,None,28.70674892199895,None,30.67346226600057,None,2000,32.67390379199787,None,None,32.67390379199787,None,1.65,[0.22167661099956604],1,34.706117235997226,None,1,1,0.22167661099956604,34.706117235997226,None,You won $0.20!,0.2,2,1,0.35,100.0,0.22167661099956604,[1],0,0,3,35.02369122300297,None,,,,,1,Practice,,2019_Aug_13_1208,MID,3.1.5,59.773236836127154,
LgReward,2000,win $5.00,0,0,0,0,0,1,1,1,,,,,,,,36.69072356400284,None,None,36.69072356400284,None,38.67307580100169,None,2000,40.691191445002914,None,None,40.691191445002914,None,1.65,"[0.22167661099956604, 0.2528359490024741]",2,42.70711377700354,None,1,1,0.2528359490024741,42.70711377700354,None,You won $5.00!,5.2,1,2,0.35,100.0,0.23725628000102006,"[1, 1]",0,0,3,43.00668504799978,None,,,,,1,Practice,,2019_Aug_13_1208,MID,3.1.5,59.773236836127154,
SmallPun,2000,lose $0.20,0,0,0,0,0,2,2,2,,,,,,,,44.690756358002545,None,None,44.690756358002545,None,46.65775747400039,None,2000,48.67418142800307,None,None,48.67418142800307,None,1.65,"[0.22167661099956604, 0.2528359490024741, 0.23657328300032532]",3,50.69135565200122,None,1,1,0.23657328300032532,50.69135565200122,None,You did not lose $0.20!,5.2,5,3,0.3,100.0,0.2370286143341218,[],100.0,3,3,51.00991803200304,None,Adjusting RT...,,,,1,Practice,,2019_Aug_13_1208,MID,3.1.5,59.773236836127154,
LgPun,2000,lose $5.00,0,0,0,0,0,3,3,3,,,,,,,,52.6911822530019,None,None,52.6911822530019,None,54.65782761800074,None,2000,56.677667299998575,None,None,56.677667299998575,None,1.7,"[0.22167661099956604, 0.2528359490024741, 0.23657328300032532, 0.2202605679995031]",4,58.69155070600391,None,1,1,0.2202605679995031,58.69155070600391,None,You did not lose $5.00!,5.2,4,4,0.3,100.0,0.23283660275046714,[1],100.0,3,3,58.95739118199708,None,,,,,1,Practice,,2019_Aug_13_1208,MID,3.1.5,59.773236836127154,
Triangle,2000,not win or lose money,0,0,0,0,0,4,4,4,,,,,,,,60.69441100199765,None,None,60.69441100199765,None,62.65843051399861,None,2000,64.6782442199983,None,None,64.6782442199983,None,1.7,"[0.22167661099956604, 0.2528359490024741, 0.23657328300032532, 0.2202605679995031]",5,66.69201046400121,None,None,0,,66.69201046400121,None,You did not win or lose anything!,5.2,3,4,0.3,80.0,0.23283660275046714,[1],100.0,3,3,66.9619207939977,None,,,,,1,Practice,,2019_Aug_13_1208,MID,3.1.5,59.773236836127154,
,,,0,0,0,0,,,,,,,,,,,,,,,,,,,,,,,,,,,,,,,,,,,,,,,,,,,,,,,,,,,,1,Practice,,2019_Aug_13_1208,MID,3.1.5,59.773236836127154,
SmallReward,2000,,1,0,1,0,0,0,0,0,68.691824704998,None,None,None,73.1132413009982,None,TimeVersion_practice1.csv,,,,,,75.12604116500006,None,2000,77.13039173700236,None,None,77.13039173700236,None,1.7,"[0.22167661099956604, 0.2528359490024741, 0.23657328300032532, 0.2202605679995031]",6,79.15860625800269,None,None,0,,79.15860625800269,None,You did not win $0.20!,5.2,2,5,0.3,66.66666666666666,0.23283660275046714,"[1, 0]",100.0,3,3,79.41404986799898,None,,,,,1,Practice,,2019_Aug_13_1208,MID,3.1.5,59.773236836127154,
LgReward,2000,,1,0,1,0,0,1,1,1,,,,,,,,,,,,,81.12574135400064,None,2000,83.13092238699755,None,None,83.13092238699755,None,1.7,"[0.22167661099956604, 0.2528359490024741, 0.23657328300032532, 0.2202605679995031, 0.20460017600271385]",7,85.14738388700061,None,1,1,0.20460017600271385,85.14738388700061,None,You won $5.00!,10.2,1,6,0.27,71.42857142857143,0.22718931740091647,[],83.33333333333333,6,3,85.40964632300165,None,Adjusting RT...,,,,1,Practice,,2019_Aug_13_1208,MID,3.1.5,59.773236836127154,
SmallPun,2000,,1,0,1,0,0,2,2,2,,,,,,,,,,,,,87.10938334200182,None,2000,89.13232284400146,None,None,89.13232284400146,None,1.73,"[0.22167661099956604, 0.2528359490024741, 0.23657328300032532, 0.2202605679995031, 0.20460017600271385]",8,91.14251267699728,None,None,0,,91.14251267699728,None,You lost $0.20!,10.0,5,7,0.27,62.5,0.22718931740091647,[0],83.33333333333333,6,3,91.3814668499981,None,,,,,1,Practice,,2019_Aug_13_1208,MID,3.1.5,59.773236836127154,
LgPun,2000,,1,0,1,0,0,3,3,3,,,,,,,,,,,,,93.109836980002,None,2000,95.13235633599834,None,1,95.13235633599834,None,1.73,"[0.22167661099956604, 0.2528359490024741, 0.23657328300032532, 0.2202605679995031, 0.20460017600271385]",9,97.14288490699983,None,None,0,,97.14288490699983,None,You lost $5.00!,5.0,4,8,0.27,55.55555555555556,0.22718931740091647,"[0, 0]",83.33333333333333,6,3,97.37690495700372,None,,1.9155740369969863,,,1,Practice,,2019_Aug_13_1208,MID,3.1.5,59.773236836127154,
Triangle,2000,,1,0,1,0,0,4,4,4,,,,,,,,,,,,,99.109273424001,None,2000,101.13393741899927,None,None,101.13393741899927,None,1.73,"[0.22167661099956604, 0.2528359490024741, 0.23657328300032532, 0.2202605679995031, 0.20460017600271385]",10,103.134257153004,None,None,0,,103.134257153004,None,You did not win or lose anything!,5.0,3,8,0.27,50.0,0.22718931740091647,"[0, 0]",83.33333333333333,6,3,103.38313642400317,None,,,,,1,Practice,,2019_Aug_13_1208,MID,3.1.5,59.773236836127154,
LgReward,2000,,1,0,1,0,0,5,5,5,,,,,,,,,,,,,105.12628262399812,None,2000,107.1345244749973,None,None,107.1345244749973,None,1.73,"[0.22167661099956604, 0.2528359490024741, 0.23657328300032532, 0.2202605679995031, 0.20460017600271385]",11,109.1513610740003,None,None,0,,109.1513610740003,None,You did not win $5.00!,5.0,1,9,0.31,45.45454545454545,0.22718931740091647,[],33.33333333333333,9,3,109.38486715799809,None,Adjusting RT...,,,,1,Practice,,2019_Aug_13_1208,MID,3.1.5,59.773236836127154,
SmallPun,2000,,1,0,1,0,0,6,6,6,,,,,,,,,,,,,111.11057172700384,None,2000,113.13485866400151,None,None,113.13485866400151,None,1.69,"[0.22167661099956604, 0.2528359490024741, 0.23657328300032532, 0.2202605679995031, 0.20460017600271385]",12,115.13597810499778,None,None,0,,115.13597810499778,None,You lost $0.20!,4.8,5,10,0.31,41.66666666666667,0.22718931740091647,[0],33.33333333333333,9,3,115.41016234199924,None,,,,,1,Practice,,2019_Aug_13_1208,MID,3.1.5,59.773236836127154,
SmallReward,2000,,1,0,1,0,0,7,7,7,,,,,,,,,,,,,117.10207801299839,None,2000,119.11942044999887,None,None,119.11942044999887,None,1.69,"[0.22167661099956604, 0.2528359490024741, 0.23657328300032532, 0.2202605679995031, 0.20460017600271385]",13,121.1355954430037,None,None,0,,121.1355954430037,None,You did not win $0.20!,4.8,2,11,0.31,38.46153846153847,0.22718931740091647,"[0, 0]",33.33333333333333,9,3,121.40275317600026,None,,,,,1,Practice,,2019_Aug_13_1208,MID,3.1.5,59.773236836127154,
Triangle,2000,,1,0,1,0,0,8,8,8,,,,,,,,,,,,,123.0777739969999,None,2000,125.10380332500063,None,None,125.10380332500063,None,1.69,"[0.22167661099956604, 0.2528359490024741, 0.23657328300032532, 0.2202605679995031, 0.20460017600271385, 0.20883870900433976]",14,127.1033619430018,None,1,1,0.20883870900433976,127.1033619430018,None,You did not win or lose anything!,4.8,3,11,0.31,42.857142857142854,0.2241308826681537,"[0, 0]",33.33333333333333,9,3,127.38658640399808,None,,,,,1,Practice,,2019_Aug_13_1208,MID,3.1.5,59.773236836127154,
LgReward,2000,,1,0,1,0,0,9,9,9,,,,,,,,,,,,,129.07142620399827,None,2000,131.08745792399714,None,None,131.08745792399714,None,1.69,"[0.22167661099956604, 0.2528359490024741, 0.23657328300032532, 0.2202605679995031, 0.20460017600271385, 0.20883870900433976, 0.21606343800522154]",15,133.10424074500042,None,1,1,0.21606343800522154,133.10424074500042,None,You won $5.00!,9.8,1,12,0.36,46.666666666666664,0.2229783905734491,[],16.666666666666664,12,3,133.3613972710009,None,Adjusting RT...,,,,1,Practice,,2019_Aug_13_1208,MID,3.1.5,59.773236836127154,
LgPun,2000,,1,0,1,0,0,10,10,10,,,,,,,,,,,,,135.04503496699908,None,2000,137.07172689800063,None,None,137.07172689800063,None,1.6400000000000001,"[0.22167661099956604, 0.2528359490024741, 0.23657328300032532, 0.2202605679995031, 0.20460017600271385, 0.20883870900433976, 0.21606343800522154, 0.20865813799900934]",16,139.07155769300152,None,1,1,0.20865813799900934,139.07155769300152,None,You did not lose $5.00!,9.8,4,13,0.36,50.0,0.22118835900164413,[1],16.666666666666664,12,3,139.40590079800313,None,,,,,1,Practice,,2019_Aug_13_1208,MID,3.1.5,59.773236836127154,
SmallPun,2000,,1,0,1,0,0,11,11,11,,,,,,,,,,,,,141.0285034039989,None,2000,143.05613051399996,None,None,143.05613051399996,None,1.6400000000000001,"[0.22167661099956604, 0.2528359490024741, 0.23657328300032532, 0.2202605679995031, 0.20460017600271385, 0.20883870900433976, 0.21606343800522154, 0.20865813799900934, 0.2007495329962694]",17,145.05557587100338,None,1,1,0.2007495329962694,145.05557587100338,None,You did not lose $0.20!,9.8,5,14,0.36,52.94117647058824,0.21891737833438027,"[1, 1]",16.666666666666664,12,3,145.3895520570004,None,,,,,1,Practice,,2019_Aug_13_1208,MID,3.1.5,59.773236836127154,
SmallReward,2000,,1,0,1,0,0,12,12,12,,,,,,,,,,,,,147.02240282500134,None,2000,149.03993086399714,None,None,149.03993086399714,None,1.6400000000000001,"[0.22167661099956604, 0.2528359490024741, 0.23657328300032532, 0.2202605679995031, 0.20460017600271385, 0.20883870900433976, 0.21606343800522154, 0.20865813799900934, 0.2007495329962694, 0.23260295399813913]",18,151.05559324099886,None,1,1,0.23260295399813913,151.05559324099886,None,You won $0.20!,10.0,2,15,0.33999999999999997,55.55555555555556,0.22028593590075615,[],66.66666666666666,15,3,151.36214650700276,None,Adjusting RT...,,,,1,Practice,,2019_Aug_13_1208,MID,3.1.5,59.773236836127154,
LgPun,2000,,1,0,1,0,0,13,13,13,,,,,,,,,,,,,152.99570749900158,None,2000,155.02355108500342,None,1,155.02355108500342,None,1.6600000000000001,"[0.22167661099956604, 0.2528359490024741, 0.23657328300032532, 0.2202605679995031, 0.20460017600271385, 0.20883870900433976, 0.21606343800522154, 0.20865813799900934, 0.2007495329962694, 0.23260295399813913]",19,157.0239687680005,None,None,0,,157.0239687680005,None,You lost $5.00!,5.0,4,16,0.33999999999999997,52.63157894736842,0.22028593590075615,[0],66.66666666666666,15,3,157.3293646460006,None,,1.8726388409995707,,,1,Practice,,2019_Aug_13_1208,MID,3.1.5,59.773236836127154,
Triangle,2000,,1,0,1,0,0,14,14,14,,,,,,,,,,,,,158.97912366100354,None,2000,161.00783608799975,None,None,161.00783608799975,None,1.6600000000000001,"[0.22167661099956604, 0.2528359490024741, 0.23657328300032532, 0.2202605679995031, 0.20460017600271385, 0.20883870900433976, 0.21606343800522154, 0.20865813799900934, 0.2007495329962694, 0.23260295399813913]",20,163.0074042760025,None,None,0,,163.0074042760025,None,You did not win or lose anything!,5.0,3,16,0.33999999999999997,50.0,0.22028593590075615,[0],66.66666666666666,15,3,163.3252401369973,None,,,,,1,Practice,,2019_Aug_13_1208,MID,3.1.5,59.773236836127154,
,,,1,0,1,0,,,,,,,,,,,,,,,,,,,,,,,,,,,,,,,,,,,,,,,,,,,,,,,,,,,,1,Practice,,2019_Aug_13_1208,MID,3.1.5,59.773236836127154,
,,,,,,,,,,,,,,,,,,169.96317093900143,None,,,,,,,,,,,,,,,,,,,,,,,,,,,,,,,,,,,,,164.96289823300322,None,,,,,,,,
