cue,probe,condition,trials.thisRepN,trials.thisTrialN,trials.thisN,trials.thisIndex,jitter,fixationResp.keys,jitterTarget,feedbackDur,rt_list,Trial counter,probeResp.keys,probeResp.corr,probeResp.rt,msg,TrackEarnings,TrialType,NonNeutralTrialsNum,probeDur,percentacc,meanrt,UserAcc,AdjTrial,AdjTrialInc,fixationResp.rt,participant,session,PracticeRT,date,expName,psychopyVersion,frameRate,
images/WinSmall.BMP,images/WinProbe.BMP,WinSmall,0,0,0,4,3.388,None,0.418,1.5,[0.26949129300192],1,space,1,0.26949129300192,You won $0.20!,0.2,2,1,0.5,100.0,0.26949129300192,[1],0,3,,,001,.5,2019_Apr_22_1507,MID,3.0.7,59.9908828318731,
images/Neutral.BMP,images/NeutralProbe.BMP,Neutral,0,1,1,2,3.919,space,0.445,1.5,[0.26949129300192],2,None,0,,You did not win or lose anything!,0.2,3,1,0.5,50.0,0.26949129300192,[1],0,3,1.3688162849866785,,001,.5,2019_Apr_22_1507,MID,3.0.7,59.9908828318731,
images/LoseBig.BMP,images/LoseProbe.BMP,LoseBig,0,2,2,0,3.209,space,0.477,1.5,[0.26949129300192],3,None,0,,You lost $5.00!,-4.8,4,2,0.5,33.33333333333333,0.26949129300192,"[1, 0]",0,3,0.4188768609892577,,001,.5,2019_Apr_22_1507,MID,3.0.7,59.9908828318731,
images/LoseSmall.BMP,images/LoseProbe.BMP,LoseSmall,0,3,3,1,1.679,None,0.462,1.5,[0.26949129300192],4,None,0,,You lost $0.20!,-5.0,5,3,0.5,25.0,0.26949129300192,[],3,3,,,001,.5,2019_Apr_22_1507,MID,3.0.7,59.9908828318731,
images/WinBig.BMP,images/WinProbe.BMP,WinBig,0,4,4,3,2.992,None,0.353,1.5,[0.26949129300192],5,None,0,,You did not win $5.00!,-5.0,1,4,0.5,20.0,0.26949129300192,[0],3,3,,,001,.5,2019_Apr_22_1507,MID,3.0.7,59.9908828318731,
images/WinBig.BMP,images/WinProbe.BMP,WinBig,1,0,5,3,1.967,space,0.331,1.5,[0.26949129300192],6,None,0,,You did not win $5.00!,-5.0,1,5,0.5,16.666666666666664,0.26949129300192,"[0, 0]",3,3,0.28546719101723284,,001,.5,2019_Apr_22_1507,MID,3.0.7,59.9908828318731,
images/Neutral.BMP,images/NeutralProbe.BMP,Neutral,1,1,6,2,3.86,None,0.252,1.5,"[0.26949129300192, 0.2879277180181816]",7,space,1,0.2879277180181816,You did not win or lose anything!,-5.0,3,5,0.5,28.57142857142857,0.2787095055100508,"[0, 0]",3,3,,,001,.5,2019_Apr_22_1507,MID,3.0.7,59.9908828318731,
images/LoseSmall.BMP,images/LoseProbe.BMP,LoseSmall,1,2,7,1,3.786,None,0.406,1.5,"[0.26949129300192, 0.2879277180181816, 0.3706922670244239]",8,space,1,0.3706922670244239,You did not lose $0.20!,-5.0,5,6,0.5,37.5,0.3093704260148418,[],6,3,,,001,.5,2019_Apr_22_1507,MID,3.0.7,59.9908828318731,
images/WinSmall.BMP,images/WinProbe.BMP,WinSmall,1,3,8,4,1.8,None,0.233,1.5,"[0.26949129300192, 0.2879277180181816, 0.3706922670244239, 0.34968019102234393]",9,space,1,0.34968019102234393,You won $0.20!,-4.8,2,7,0.5,44.44444444444444,0.31944786726671737,[1],6,3,,,001,.5,2019_Apr_22_1507,MID,3.0.7,59.9908828318731,
images/LoseBig.BMP,images/LoseProbe.BMP,LoseBig,1,4,9,0,2.459,None,0.187,1.5,"[0.26949129300192, 0.2879277180181816, 0.3706922670244239, 0.34968019102234393, 0.3535012740176171]",10,space,1,0.3535012740176171,You did not lose $5.00!,-4.8,4,8,0.5,50.0,0.3262585486168973,"[1, 1]",6,3,,,001,.5,2019_Apr_22_1507,MID,3.0.7,59.9908828318731,
images/LoseSmall.BMP,images/LoseProbe.BMP,LoseSmall,2,0,10,1,3.81,None,0.174,1.5,"[0.26949129300192, 0.2879277180181816, 0.3706922670244239, 0.34968019102234393, 0.3535012740176171, 0.2693390580243431]",11,space,1,0.2693390580243431,You did not lose $0.20!,-4.8,5,9,0.48,54.54545454545454,0.31677196685147163,[],9,3,,,001,.5,2019_Apr_22_1507,MID,3.0.7,59.9908828318731,
images/LoseBig.BMP,images/LoseProbe.BMP,LoseBig,2,1,11,0,2.378,None,0.166,1.52,"[0.26949129300192, 0.2879277180181816, 0.3706922670244239, 0.34968019102234393, 0.3535012740176171, 0.2693390580243431]",12,None,0,,You lost $5.00!,-9.8,4,10,0.48,50.0,0.31677196685147163,[0],9,3,,,001,.5,2019_Apr_22_1507,MID,3.0.7,59.9908828318731,
images/WinSmall.BMP,images/WinProbe.BMP,WinSmall,2,2,12,4,2.094,None,0.429,1.52,"[0.26949129300192, 0.2879277180181816, 0.3706922670244239, 0.34968019102234393, 0.3535012740176171, 0.2693390580243431, 0.3215039219940081]",13,space,1,0.3215039219940081,You won $0.20!,-9.600000000000001,2,11,0.48,53.84615384615385,0.31744796044326257,"[0, 1]",9,3,,,001,.5,2019_Apr_22_1507,MID,3.0.7,59.9908828318731,
images/Neutral.BMP,images/NeutralProbe.BMP,Neutral,2,3,13,2,3.941,None,0.396,1.52,"[0.26949129300192, 0.2879277180181816, 0.3706922670244239, 0.34968019102234393, 0.3535012740176171, 0.2693390580243431, 0.3215039219940081, 0.27363499999046326]",14,space,1,0.27363499999046326,You did not win or lose anything!,-9.600000000000001,3,11,0.48,57.14285714285714,0.31197134038666263,"[0, 1]",9,3,,,001,.5,2019_Apr_22_1507,MID,3.0.7,59.9908828318731,
images/WinBig.BMP,images/WinProbe.BMP,WinBig,2,4,14,3,3.408,space,0.176,1.52,"[0.26949129300192, 0.2879277180181816, 0.3706922670244239, 0.34968019102234393, 0.3535012740176171, 0.2693390580243431, 0.3215039219940081, 0.27363499999046326]",15,None,0,,You did not win $5.00!,-9.600000000000001,1,12,0.45999999999999996,53.333333333333336,0.31197134038666263,[],12,3,0.6860933470306918,,001,.5,2019_Apr_22_1507,MID,3.0.7,59.9908828318731,
images/Neutral.BMP,images/NeutralProbe.BMP,Neutral,3,0,15,2,1.822,None,0.153,1.54,"[0.26949129300192, 0.2879277180181816, 0.3706922670244239, 0.34968019102234393, 0.3535012740176171, 0.2693390580243431, 0.3215039219940081, 0.27363499999046326, 0.3538234250154346]",16,space,1,0.3538234250154346,You did not win or lose anything!,-9.600000000000001,3,12,0.45999999999999996,56.25,0.31662157201208174,[],12,3,,,001,.5,2019_Apr_22_1507,MID,3.0.7,59.9908828318731,
images/WinBig.BMP,images/WinProbe.BMP,WinBig,3,1,16,3,3.027,None,0.182,1.54,"[0.26949129300192, 0.2879277180181816, 0.3706922670244239, 0.34968019102234393, 0.3535012740176171, 0.2693390580243431, 0.3215039219940081, 0.27363499999046326, 0.3538234250154346, 0.3525150599889457]",17,space,1,0.3525150599889457,You won $5.00!,-4.600000000000001,1,13,0.45999999999999996,58.82352941176471,0.32021092080976815,[1],12,3,,,001,.5,2019_Apr_22_1507,MID,3.0.7,59.9908828318731,
images/LoseSmall.BMP,images/LoseProbe.BMP,LoseSmall,3,2,17,1,2.084,None,0.349,1.54,"[0.26949129300192, 0.2879277180181816, 0.3706922670244239, 0.34968019102234393, 0.3535012740176171, 0.2693390580243431, 0.3215039219940081, 0.27363499999046326, 0.3538234250154346, 0.3525150599889457, 0.3858431519474834]",18,space,1,0.3858431519474834,You did not lose $0.20!,-4.600000000000001,5,14,0.45999999999999996,61.111111111111114,0.32617748727683316,"[1, 1]",12,3,,,001,.5,2019_Apr_22_1507,MID,3.0.7,59.9908828318731,
images/LoseBig.BMP,images/LoseProbe.BMP,LoseBig,3,3,18,0,1.727,None,0.451,1.54,"[0.26949129300192, 0.2879277180181816, 0.3706922670244239, 0.34968019102234393, 0.3535012740176171, 0.2693390580243431, 0.3215039219940081, 0.27363499999046326, 0.3538234250154346, 0.3525150599889457, 0.3858431519474834, 0.35442367201903835]",19,space,1,0.35442367201903835,You did not lose $5.00!,-4.600000000000001,4,15,0.43999999999999995,63.1578947368421,0.3285313360053503,[],15,3,,,001,.5,2019_Apr_22_1507,MID,3.0.7,59.9908828318731,
images/WinSmall.BMP,images/WinProbe.BMP,WinSmall,3,4,19,4,3.306,None,0.361,1.56,"[0.26949129300192, 0.2879277180181816, 0.3706922670244239, 0.34968019102234393, 0.3535012740176171, 0.2693390580243431, 0.3215039219940081, 0.27363499999046326, 0.3538234250154346, 0.3525150599889457, 0.3858431519474834, 0.35442367201903835, 0.3866804770077579]",20,space,1,0.3866804770077579,You won $0.20!,-4.400000000000001,2,16,0.43999999999999995,65.0,0.33300434685168934,[1],15,3,,,001,.5,2019_Apr_22_1507,MID,3.0.7,59.9908828318731,
images/WinSmall.BMP,images/WinProbe.BMP,WinSmall,4,0,20,4,1.785,None,0.452,1.56,"[0.26949129300192, 0.2879277180181816, 0.3706922670244239, 0.34968019102234393, 0.3535012740176171, 0.2693390580243431, 0.3215039219940081, 0.27363499999046326, 0.3538234250154346, 0.3525150599889457, 0.3858431519474834, 0.35442367201903835, 0.3866804770077579, 0.38598601100966334]",21,space,1,0.38598601100966334,You won $0.20!,-4.200000000000001,2,17,0.43999999999999995,66.66666666666666,0.33678875143440173,"[1, 1]",15,3,,,001,.5,2019_Apr_22_1507,MID,3.0.7,59.9908828318731,
images/LoseBig.BMP,images/LoseProbe.BMP,LoseBig,4,1,21,0,1.703,None,0.21,1.56,"[0.26949129300192, 0.2879277180181816, 0.3706922670244239, 0.34968019102234393, 0.3535012740176171, 0.2693390580243431, 0.3215039219940081, 0.27363499999046326, 0.3538234250154346, 0.3525150599889457, 0.3858431519474834, 0.35442367201903835, 0.3866804770077579, 0.38598601100966334, 0.40122093103127554]",22,space,1,0.40122093103127554,You did not lose $5.00!,-4.200000000000001,4,18,0.38999999999999996,68.18181818181817,0.3410842300741933,[],18,3,,,001,.5,2019_Apr_22_1507,MID,3.0.7,59.9908828318731,
images/WinBig.BMP,images/WinProbe.BMP,WinBig,4,2,22,3,3.318,None,0.407,1.61,"[0.26949129300192, 0.2879277180181816, 0.3706922670244239, 0.34968019102234393, 0.3535012740176171, 0.2693390580243431, 0.3215039219940081, 0.27363499999046326, 0.3538234250154346, 0.3525150599889457, 0.3858431519474834, 0.35442367201903835, 0.3866804770077579, 0.38598601100966334, 0.40122093103127554]",23,None,0,,You did not win $5.00!,-4.200000000000001,1,19,0.38999999999999996,65.21739130434783,0.3410842300741933,[0],18,3,,,001,.5,2019_Apr_22_1507,MID,3.0.7,59.9908828318731,
images/Neutral.BMP,images/NeutralProbe.BMP,Neutral,4,3,23,2,2.648,None,0.379,1.61,"[0.26949129300192, 0.2879277180181816, 0.3706922670244239, 0.34968019102234393, 0.3535012740176171, 0.2693390580243431, 0.3215039219940081, 0.27363499999046326, 0.3538234250154346, 0.3525150599889457, 0.3858431519474834, 0.35442367201903835, 0.3866804770077579, 0.38598601100966334, 0.40122093103127554, 0.28399740101303905]",24,space,1,0.28399740101303905,You did not win or lose anything!,-4.200000000000001,3,19,0.38999999999999996,66.66666666666666,0.3375163032578712,[0],18,3,,,001,.5,2019_Apr_22_1507,MID,3.0.7,59.9908828318731,
images/LoseSmall.BMP,images/LoseProbe.BMP,LoseSmall,4,4,24,1,2.067,None,0.188,1.61,"[0.26949129300192, 0.2879277180181816, 0.3706922670244239, 0.34968019102234393, 0.3535012740176171, 0.2693390580243431, 0.3215039219940081, 0.27363499999046326, 0.3538234250154346, 0.3525150599889457, 0.3858431519474834, 0.35442367201903835, 0.3866804770077579, 0.38598601100966334, 0.40122093103127554, 0.28399740101303905, 0.23661556100705639]",25,space,1,0.23661556100705639,You did not lose $0.20!,-4.200000000000001,5,20,0.38999999999999996,68.0,0.3315809654784115,"[0, 1]",18,3,,,001,.5,2019_Apr_22_1507,MID,3.0.7,59.9908828318731,
images/WinSmall.BMP,images/WinProbe.BMP,WinSmall,5,0,25,4,3.063,None,0.44,1.61,"[0.26949129300192, 0.2879277180181816, 0.3706922670244239, 0.34968019102234393, 0.3535012740176171, 0.2693390580243431, 0.3215039219940081, 0.27363499999046326, 0.3538234250154346, 0.3525150599889457, 0.3858431519474834, 0.35442367201903835, 0.3866804770077579, 0.38598601100966334, 0.40122093103127554, 0.28399740101303905, 0.23661556100705639, 0.32039277197327465]",26,space,1,0.32039277197327465,You won $0.20!,-4.000000000000001,2,21,0.36,69.23076923076923,0.33095939917257056,[],21,3,,,001,.5,2019_Apr_22_1507,MID,3.0.7,59.9908828318731,
,,,,,,,3.171,None,0.178,1.6400000000000001,"[0.26949129300192, 0.2879277180181816, 0.3706922670244239, 0.34968019102234393, 0.3535012740176171, 0.2693390580243431, 0.3215039219940081, 0.27363499999046326, 0.3538234250154346, 0.3525150599889457, 0.3858431519474834, 0.35442367201903835, 0.3866804770077579, 0.38598601100966334, 0.40122093103127554, 0.28399740101303905, 0.23661556100705639, 0.32039277197327465, 0.28500439604977146]",27,space,1,0.28500439604977146,You did not lose $5.00!,-4.000000000000001,,,,,,,,,,,,,,,,,
