Condition,FixationDur,trials.thisRepN,trials.thisTrialN,trials.thisN,trials.thisIndex,TrialOrder,cueImage.started,cueImage.stopped,FixationDur,fixation.started,fixation.stopped,fixationResp.keys,fixationResp.started,fixationResp.stopped,feedbackDur,Trial counter,Target.started,Target.stopped,probeResp.keys,probeResp.corr,probeResp.rt,probeResp.started,probeResp.stopped,msg,TrackEarnings,TrialType,NonNeutralTrialsNum,probeDur,percentacc_total,meanrt,UserAcc,Acc,AdjTrial,AdjTrialInc,AdjRTmsg,fixationResp.rt,participant,prac_or_scan,run,date,expName,psychopyVersion,frameRate,
LgPun,2500,0,0,0,0,TimeVersion6.csv,15.232966294977814,None,2500,17.248852958990028,None,None,17.248852958990028,None,1.68,1,19.749934412975563,None,1,1,0.22587070599547587,19.749934412975563,None,You did not lose $5.00!,0,4,1,0.32,100.0,0.22587070599547587,[1],0,0,3,,,0000,Scanner,1,2019_Aug_27_1536,MID,3.1.5,60.035471477100494,
LgReward,1500,0,1,1,1,,21.733366731001297,None,1500,23.750249089993304,None,None,23.750249089993304,None,1.68,2,25.267754851985956,None,None,0,,25.267754851985956,None,You did not win $5.00!,0,1,2,0.32,50.0,0.22587070599547587,"[1, 0]",0,0,3,,,0000,Scanner,1,2019_Aug_27_1536,MID,3.1.5,60.035471477100494,
LgPun,1500,0,2,2,2,,27.220657203986775,None,1500,29.251355984975817,None,None,29.251355984975817,None,1.68,3,30.75129011197714,None,1,1,0.2085065600113012,30.75129011197714,None,You did not lose $5.00!,0,4,3,0.3,66.66666666666666,0.21718863300338853,[],66.66666666666666,3,3,Adjusting RT...,,0000,Scanner,1,2019_Aug_27_1536,MID,3.1.5,60.035471477100494,
SmallReward,2000,0,3,3,3,,32.73490466098883,None,2000,34.75220707798144,None,None,34.75220707798144,None,1.7,4,36.768815514980815,None,1,1,0.1989716270181816,36.768815514980815,None,You won $0.20!,0.2,2,4,0.3,75.0,0.21111629767498621,[1],66.66666666666666,3,3,,,0000,Scanner,1,2019_Aug_27_1536,MID,3.1.5,60.035471477100494,
Triangle,2000,0,4,4,4,,38.72168866900029,None,2000,40.75325229598093,None,None,40.75325229598093,None,1.7,5,42.75280200599809,None,1,1,0.19903685597819276,42.75280200599809,None,You did not win or lose anything!,0.2,3,4,0.3,80.0,0.20809643725078786,[1],66.66666666666666,3,3,,,0000,Scanner,1,2019_Aug_27_1536,MID,3.1.5,60.035471477100494,
SmallReward,1500,0,5,5,5,,44.73827368099592,None,1500,46.75354352800059,None,None,46.75354352800059,None,1.7,6,48.270338560978416,None,None,0,,48.270338560978416,None,You did not win $0.20!,0.2,2,5,0.3,66.66666666666666,0.20809643725078786,"[1, 0]",66.66666666666666,3,3,,,0000,Scanner,1,2019_Aug_27_1536,MID,3.1.5,60.035471477100494,
Triangle,1500,0,6,6,6,,50.22248542497982,None,1500,52.254382190003525,None,None,52.254382190003525,None,1.7,7,53.754652146977605,None,None,0,,53.754652146977605,None,You did not win or lose anything!,0.2,3,5,0.3,57.14285714285714,0.20809643725078786,"[1, 0]",66.66666666666666,3,3,,,0000,Scanner,1,2019_Aug_27_1536,MID,3.1.5,60.035471477100494,
LgPun,1500,0,7,7,7,,55.72341408499051,None,1500,57.755213234981056,None,None,57.755213234981056,None,1.7,8,59.25543230900075,None,1,1,0.2083655440073926,59.25543230900075,None,You did not lose $5.00!,0.2,4,6,0.27999999999999997,62.5,0.2081502586021088,[],66.66666666666666,6,3,Adjusting RT...,,0000,Scanner,1,2019_Aug_27_1536,MID,3.1.5,60.035471477100494,
LgReward,2000,0,8,8,8,,61.23919682498672,None,2000,63.25580860499758,None,1,63.25580860499758,None,1.72,9,65.27277205899009,None,None,0,,65.27277205899009,None,You did not win $5.00!,0.2,1,7,0.27999999999999997,55.55555555555556,0.2081502586021088,[0],66.66666666666666,6,3,,1.8400119419966359,0000,Scanner,1,2019_Aug_27_1536,MID,3.1.5,60.035471477100494,
SmallPun,4000,0,9,9,9,,67.22475512899109,None,4000,69.25616993897711,None,1,69.25616993897711,None,1.72,10,73.2574664609856,None,None,0,,73.2574664609856,None,You lost $0.20!,0.0,5,8,0.27999999999999997,50.0,0.2081502586021088,"[0, 0]",66.66666666666666,6,3,,2.1756566380208824,0000,Scanner,1,2019_Aug_27_1536,MID,3.1.5,60.035471477100494,
LgPun,1500,0,10,10,10,,75.22565829797531,None,1500,77.25714472599793,None,None,77.25714472599793,None,1.72,11,78.75788148099673,None,None,0,,78.75788148099673,None,You lost $5.00!,-5.0,4,9,0.31999999999999995,45.45454545454545,0.2081502586021088,[],33.33333333333333,9,3,Adjusting RT...,,0000,Scanner,1,2019_Aug_27_1536,MID,3.1.5,60.035471477100494,
SmallReward,1500,0,11,11,11,,80.74078344297595,None,1500,82.75788366197958,None,None,82.75788366197958,None,1.6800000000000002,12,84.27481283398811,None,None,0,,84.27481283398811,None,You did not win $0.20!,-5.0,2,10,0.31999999999999995,41.66666666666667,0.2081502586021088,[0],33.33333333333333,9,3,,,0000,Scanner,1,2019_Aug_27_1536,MID,3.1.5,60.035471477100494,
LgReward,4000,0,12,12,12,,86.24194585499936,None,4000,88.25933843498933,None,None,88.25933843498933,None,1.6800000000000002,13,92.2764475409931,None,1,1,0.1873711160151288,92.2764475409931,None,You won $5.00!,0.0,1,11,0.31999999999999995,46.15384615384615,0.20468706817094548,"[0, 1]",33.33333333333333,9,3,,,0000,Scanner,1,2019_Aug_27_1536,MID,3.1.5,60.035471477100494,
Triangle,1500,0,13,13,13,,94.22820384398801,None,1500,96.26007742699585,None,None,96.26007742699585,None,1.6800000000000002,14,97.76013669298845,None,None,0,,97.76013669298845,None,You did not win or lose anything!,0.0,3,11,0.31999999999999995,42.857142857142854,0.20468706817094548,"[0, 1]",33.33333333333333,9,3,,,0000,Scanner,1,2019_Aug_27_1536,MID,3.1.5,60.035471477100494,
LgPun,2000,0,14,14,14,,99.7297734899912,None,2000,101.76103170699207,None,None,101.76103170699207,None,1.6800000000000002,15,103.76060447099735,None,1,1,0.20718842497444712,103.76060447099735,None,You did not lose $5.00!,0.0,4,12,0.35999999999999993,46.666666666666664,0.20504440485716,[],33.33333333333333,12,3,Adjusting RT...,,0000,Scanner,1,2019_Aug_27_1536,MID,3.1.5,60.035471477100494,
Triangle,3000,0,15,15,15,,105.73025608898024,None,3000,107.7619864869921,None,None,107.7619864869921,None,1.6400000000000001,16,110.76173658599146,None,1,1,0.20615212700795382,110.76173658599146,None,You did not win or lose anything!,0.0,3,12,0.35999999999999993,50.0,0.20518287012600922,[],33.33333333333333,12,3,,,0000,Scanner,1,2019_Aug_27_1536,MID,3.1.5,60.035471477100494,
SmallPun,1500,0,16,16,16,,112.71418461800204,None,1500,114.74586295799236,None,None,114.74586295799236,None,1.6400000000000001,17,116.24593514000298,None,None,0,,116.24593514000298,None,You lost $0.20!,-0.2,5,13,0.35999999999999993,47.05882352941176,0.20518287012600922,[0],33.33333333333333,12,3,,,0000,Scanner,1,2019_Aug_27_1536,MID,3.1.5,60.035471477100494,
Triangle,3500,0,17,17,17,,118.19799694299581,None,3500,120.22986532299547,None,None,120.22986532299547,None,1.6400000000000001,18,123.73010682998574,None,1,1,0.18176737599424087,123.73010682998574,None,You did not win or lose anything!,-0.2,3,13,0.35999999999999993,50.0,0.20258114855581275,[0],33.33333333333333,12,3,,,0000,Scanner,1,2019_Aug_27_1536,MID,3.1.5,60.035471477100494,
LgPun,3000,0,18,18,18,,125.6824112389877,None,3000,127.71451875800267,None,None,127.71451875800267,None,1.6400000000000001,19,130.7140840679931,None,1,1,0.19759990499005653,130.7140840679931,None,You did not lose $5.00!,-0.2,4,14,0.35999999999999993,52.63157894736842,0.20208302419923713,"[0, 1]",33.33333333333333,12,3,,,0000,Scanner,1,2019_Aug_27_1536,MID,3.1.5,60.035471477100494,
LgReward,1500,0,19,19,19,,132.6818203239818,None,1500,134.69831603998318,None,None,134.69831603998318,None,1.6400000000000001,20,136.2147859419929,None,None,0,,136.2147859419929,None,You did not win $5.00!,-0.2,1,15,0.37999999999999995,50.0,0.20208302419923713,[],49.99999999999999,15,3,Adjusting RT...,,0000,Scanner,1,2019_Aug_27_1536,MID,3.1.5,60.035471477100494,
LgPun,1500,0,20,20,20,,138.15084476399352,None,1500,140.18229142698692,None,None,140.18229142698692,None,1.62,21,141.68272791599156,None,1,1,0.22896967898122966,141.68272791599156,None,You did not lose $5.00!,-0.2,4,16,0.37999999999999995,52.38095238095239,0.20452726554305461,[1],49.99999999999999,15,3,,,0000,Scanner,1,2019_Aug_27_1536,MID,3.1.5,60.035471477100494,
LgReward,1500,0,21,21,21,,143.66605664399685,None,1500,145.68294579000212,None,None,145.68294579000212,None,1.62,22,147.2166882029851,None,1,1,0.19909408999956213,147.2166882029851,None,You won $5.00!,4.8,1,17,0.37999999999999995,54.54545454545454,0.20407450091443025,"[1, 1]",49.99999999999999,15,3,,,0000,Scanner,1,2019_Aug_27_1536,MID,3.1.5,60.035471477100494,
LgReward,1500,0,22,22,22,,149.16667108397814,None,1500,151.1840424409893,None,None,151.1840424409893,None,1.62,23,152.7177760959894,None,1,1,0.22602235799422488,152.7177760959894,None,You won $5.00!,9.8,1,18,0.35999999999999993,56.52173913043478,0.205762797612876,[],66.66666666666666,18,3,Adjusting RT...,,0000,Scanner,1,2019_Aug_27_1536,MID,3.1.5,60.035471477100494,
Triangle,1500,0,23,23,23,,154.65310993397725,None,1500,156.6841769820021,None,None,156.6841769820021,None,1.6400000000000001,24,158.18501329698483,None,1,1,0.23079733399208635,158.18501329698483,None,You did not win or lose anything!,9.8,3,18,0.35999999999999993,58.333333333333336,0.20755097878281958,[],66.66666666666666,18,3,,,0000,Scanner,1,2019_Aug_27_1536,MID,3.1.5,60.035471477100494,
SmallReward,3500,0,24,24,24,,160.1518662449962,None,3500,162.1687859679805,None,None,162.1687859679805,None,1.6400000000000001,25,165.6858394559822,None,1,1,0.18597090398543514,165.6858394559822,None,You won $0.20!,10.0,2,19,0.35999999999999993,60.0,0.2061123071296606,[1],66.66666666666666,18,3,,,0000,Scanner,1,2019_Aug_27_1536,MID,3.1.5,60.035471477100494,
SmallPun,2000,0,25,25,25,,167.62117339199176,None,2000,169.65232783398824,None,None,169.65232783398824,None,1.6400000000000001,26,171.65338403498754,None,None,0,,171.65338403498754,None,You lost $0.20!,9.8,5,20,0.35999999999999993,57.692307692307686,0.2061123071296606,"[1, 0]",66.66666666666666,18,3,,,0000,Scanner,1,2019_Aug_27_1536,MID,3.1.5,60.035471477100494,
SmallReward,2500,0,26,26,26,,173.6199395179865,None,2500,175.6370076739986,None,None,175.6370076739986,None,1.6400000000000001,27,178.1541560969781,None,1,1,0.20566365000559017,178.1541560969781,None,You won $0.20!,10.0,2,21,0.32999999999999996,59.25925925925925,0.20608426605940622,[],83.33333333333333,21,3,Adjusting RT...,,0000,Scanner,1,2019_Aug_27_1536,MID,3.1.5,60.035471477100494,
SmallPun,2500,0,27,27,27,,180.08938416300225,None,2500,182.12105279398384,None,None,182.12105279398384,None,1.67,28,184.62143608398037,None,1,1,0.2022910329978913,184.62143608398037,None,You did not lose $0.20!,10.0,5,22,0.32999999999999996,60.71428571428571,0.2058611347028465,[1],83.33333333333333,21,3,,,0000,Scanner,1,2019_Aug_27_1536,MID,3.1.5,60.035471477100494,
Triangle,4000,0,28,28,28,,186.59083098798874,None,4000,188.6216949739901,None,None,188.6216949739901,None,1.67,29,192.62216137899668,None,1,1,0.20153419699636288,192.62216137899668,None,You did not win or lose anything!,10.0,3,22,0.32999999999999996,62.06896551724138,0.20562074927470853,[1],83.33333333333333,21,3,,,0000,Scanner,1,2019_Aug_27_1536,MID,3.1.5,60.035471477100494,
LgPun,3500,0,29,29,29,,194.59164181398228,None,3500,196.62296191198402,None,None,196.62296191198402,None,1.67,30,200.12259866300155,None,1,1,0.2531358120031655,200.12259866300155,None,You did not lose $5.00!,10.0,4,23,0.32999999999999996,63.33333333333333,0.20812154204989047,"[1, 1]",83.33333333333333,21,3,,,0000,Scanner,1,2019_Aug_27_1536,MID,3.1.5,60.035471477100494,
Triangle,1500,0,30,30,30,,202.09221981899464,None,1500,204.12394406698877,None,None,204.12394406698877,None,1.67,31,205.62476722098654,None,1,1,0.25504275801358745,205.62476722098654,None,You did not win or lose anything!,10.0,3,23,0.32999999999999996,64.51612903225806,0.21046760284807534,"[1, 1]",83.33333333333333,21,3,,,0000,Scanner,1,2019_Aug_27_1536,MID,3.1.5,60.035471477100494,
LgReward,3000,0,31,31,31,,207.64153199098655,None,3000,209.62465141399298,None,None,209.62465141399298,None,1.67,32,212.6412007100007,None,1,1,0.22266879901872016,212.6412007100007,None,You won $5.00!,15.0,1,24,0.29999999999999993,65.625,0.2110486121895346,[],83.33333333333333,24,3,Adjusting RT...,,0000,Scanner,1,2019_Aug_27_1536,MID,3.1.5,60.035471477100494,
Triangle,2500,0,32,32,32,,214.59411526098847,None,2500,216.62524121400202,None,None,216.62524121400202,None,1.7000000000000002,33,219.1256146709784,None,None,0,,219.1256146709784,None,You did not win or lose anything!,15.0,3,24,0.29999999999999993,63.63636363636363,0.2110486121895346,[],83.33333333333333,24,3,,,0000,Scanner,1,2019_Aug_27_1536,MID,3.1.5,60.035471477100494,
Triangle,2000,0,33,33,33,,221.09513383900048,None,2000,223.12670460998197,None,None,223.12670460998197,None,1.7000000000000002,34,225.12674488697667,None,None,0,,225.12674488697667,None,You did not win or lose anything!,15.0,3,24,0.29999999999999993,61.76470588235294,0.2110486121895346,[],83.33333333333333,24,3,,,0000,Scanner,1,2019_Aug_27_1536,MID,3.1.5,60.035471477100494,
SmallReward,1500,0,34,34,34,,227.11047033398063,None,1500,229.1278224059788,None,None,229.1278224059788,None,1.7000000000000002,35,230.64363184498507,None,None,0,,230.64363184498507,None,You did not win $0.20!,15.0,2,25,0.29999999999999993,60.0,0.2110486121895346,[0],83.33333333333333,24,3,,,0000,Scanner,1,2019_Aug_27_1536,MID,3.1.5,60.035471477100494,
LgPun,2000,0,35,35,35,,232.59648709499743,None,2000,234.6284380290017,None,None,234.6284380290017,None,1.7000000000000002,36,236.62835691898363,None,1,1,0.21143771900096908,236.62835691898363,None,You did not lose $5.00!,15.0,4,26,0.29999999999999993,61.111111111111114,0.21106629886278164,"[0, 1]",83.33333333333333,24,3,,,0000,Scanner,1,2019_Aug_27_1536,MID,3.1.5,60.035471477100494,
SmallReward,3000,0,36,36,36,,238.6118128069793,None,3000,240.62924062399543,None,None,240.62924062399543,None,1.7000000000000002,37,243.64638728598948,None,1,1,0.201305216003675,243.64638728598948,None,You won $0.20!,15.2,2,27,0.2699999999999999,62.16216216216216,0.21064190395586396,[],83.33333333333333,27,3,Adjusting RT...,,0000,Scanner,1,2019_Aug_27_1536,MID,3.1.5,60.035471477100494,
LgReward,3500,0,37,37,37,,245.6141910419974,None,3500,247.6297963160032,None,None,247.6297963160032,None,1.73,38,251.1465574199974,None,None,0,,251.1465574199974,None,You did not win $5.00!,15.2,1,28,0.2699999999999999,60.526315789473685,0.21064190395586396,[0],83.33333333333333,27,3,,,0000,Scanner,1,2019_Aug_27_1536,MID,3.1.5,60.035471477100494,
SmallPun,2000,0,38,38,38,,253.09896867498173,None,2000,255.1308440299763,None,None,255.1308440299763,None,1.73,39,257.1307208839862,None,None,0,,257.1307208839862,None,You lost $0.20!,15.0,5,29,0.2699999999999999,58.97435897435898,0.21064190395586396,"[0, 0]",83.33333333333333,27,3,,,0000,Scanner,1,2019_Aug_27_1536,MID,3.1.5,60.035471477100494,
SmallReward,4000,0,39,39,39,,259.11467274298775,None,4000,261.1316720179748,None,None,261.1316720179748,None,1.73,40,265.1485523149895,None,1,1,0.02450906901503913,265.1485523149895,None,You won $0.20!,15.2,2,30,0.2899999999999999,60.0,0.20288636916666292,[],49.99999999999999,30,3,Adjusting RT...,,0000,Scanner,1,2019_Aug_27_1536,MID,3.1.5,60.035471477100494,
SmallPun,1500,0,40,40,40,,267.10115467899595,None,1500,269.1328310749959,None,None,269.1328310749959,None,1.71,41,270.63295152198407,None,None,0,,270.63295152198407,None,You lost $0.20!,15.0,5,31,0.2899999999999999,58.536585365853654,0.20288636916666292,[0],49.99999999999999,30,3,,,0000,Scanner,1,2019_Aug_27_1536,MID,3.1.5,60.035471477100494,
SmallReward,2000,0,41,41,41,,272.59952502697706,None,2000,274.6168734669918,None,None,274.6168734669918,None,1.71,42,276.6337739399751,None,None,0,,276.6337739399751,None,You did not win $0.20!,15.0,2,32,0.2899999999999999,57.14285714285714,0.20288636916666292,"[0, 0]",49.99999999999999,30,3,,,0000,Scanner,1,2019_Aug_27_1536,MID,3.1.5,60.035471477100494,
SmallReward,1500,0,42,42,42,,278.5838304130011,None,1500,280.6011014279793,None,None,280.6011014279793,None,1.71,43,282.11790635299985,None,None,0,,282.11790635299985,None,You did not win $0.20!,15.0,2,33,0.3399999999999999,55.81395348837209,0.20288636916666292,[],16.666666666666664,33,3,Adjusting RT...,,0000,Scanner,1,2019_Aug_27_1536,MID,3.1.5,60.035471477100494,
SmallPun,1500,0,43,43,43,,284.05316168497666,None,1500,286.0849242839904,None,None,286.0849242839904,None,1.6600000000000001,44,287.5845344159752,None,1,1,0.2551862070104107,287.5845344159752,None,You did not lose $0.20!,15.0,5,34,0.3399999999999999,56.81818181818182,0.20497836268041283,[1],16.666666666666664,33,3,,,0000,Scanner,1,2019_Aug_27_1536,MID,3.1.5,60.035471477100494,
SmallPun,1500,0,44,44,44,,289.53702085799887,None,1500,291.5682139220007,None,None,291.5682139220007,None,1.6600000000000001,45,293.0688665350026,None,1,1,0.2589507910015527,293.0688665350026,None,You did not lose $0.20!,15.0,5,35,0.3399999999999999,57.77777777777777,0.207054225308149,"[1, 1]",16.666666666666664,33,3,,,0000,Scanner,1,2019_Aug_27_1536,MID,3.1.5,60.035471477100494,
LgReward,2000,0,45,45,45,,295.03605326398974,None,2000,297.05334528099047,None,None,297.05334528099047,None,1.6600000000000001,46,299.0701057709812,None,1,1,0.2175875190005172,299.0701057709812,None,You won $5.00!,20.0,1,36,0.35999999999999993,58.69565217391305,0.2074443472967552,[],50.0,36,3,Adjusting RT...,,0000,Scanner,1,2019_Aug_27_1536,MID,3.1.5,60.035471477100494,
LgPun,4000,0,46,46,46,,301.0033017329988,None,4000,303.0370829709864,None,None,303.0370829709864,None,1.6400000000000001,47,307.0378394369909,None,1,1,0.2259812189731747,307.0378394369909,None,You did not lose $5.00!,20.0,4,37,0.35999999999999993,59.57446808510638,0.2081063784280559,[1],50.0,36,3,,,0000,Scanner,1,2019_Aug_27_1536,MID,3.1.5,60.035471477100494,
SmallPun,3000,0,47,47,47,,308.9898390589806,None,3000,311.0216407759872,None,None,311.0216407759872,None,1.6400000000000001,48,314.0216569979966,None,1,1,0.2581369160034228,314.0216569979966,None,You did not lose $0.20!,20.0,5,38,0.35999999999999993,60.416666666666664,0.20983156937893063,"[1, 1]",50.0,36,3,,,0000,Scanner,1,2019_Aug_27_1536,MID,3.1.5,60.035471477100494,
LgReward,2500,0,48,48,48,,315.9918196979852,None,2500,318.0059147979773,None,None,318.0059147979773,None,1.6400000000000001,49,320.52262122998945,None,1,1,0.26116424301289953,320.52262122998945,None,You won $5.00!,25.0,1,39,0.30999999999999994,61.224489795918366,0.21154265850006293,[],100.0,39,3,Adjusting RT...,,0000,Scanner,1,2019_Aug_27_1536,MID,3.1.5,60.035471477100494,
SmallPun,3500,0,49,49,49,,322.4578557939967,None,3500,324.4901872749906,None,None,324.4901872749906,None,1.69,50,327.99061028199503,None,None,0,,327.99061028199503,None,You lost $0.20!,24.8,5,40,0.30999999999999994,60.0,0.21154265850006293,[0],100.0,39,3,,,0000,Scanner,1,2019_Aug_27_1536,MID,3.1.5,60.035471477100494,
,,,,,,,,,,,,,,,,,,,,,,,,,,,,,,,,,,,,,0000,Scanner,1,2019_Aug_27_1536,MID,3.1.5,60.035471477100494,
