Condition,FixationDur,run.thisRepN,run.thisTrialN,run.thisN,run.thisIndex,trials.thisRepN,trials.thisTrialN,trials.thisN,trials.thisIndex,FixationDur,fixationResp.keys,feedbackDur,rt_list,Trial counter,probeResp.keys,probeResp.corr,msg,TrackEarnings,TrialType,NonNeutralTrialsNum,probeDur,percentacc_total,meanrt,UserAcc,Acc,AdjTrial,AdjTrialInc,probeResp.rt,AdjRTmsg,fixationResp.rt,participant,session,practiceRT,trial Order,date,expName,psychopyVersion,frameRate,
SmallPun,2000,0,0,0,0,0,0,0,0,2000,None,1.5,[],1,None,0,You lost $0.20!,-0.2,5,1,0.5,0.0,nan,[0],0,0,3,,,,0001,001,.5,1,2019_Aug_05_1938,MID,3.0.7,60.13952080113049,
LgReward,4000,0,0,0,0,0,1,1,1,4000,None,1.5,[0.26975015500283916],2,space,1,You won $5.00!,4.8,1,2,0.5,50.0,0.26975015500283916,"[0, 1]",0,0,3,0.26975015500283916,,,0001,001,.5,1,2019_Aug_05_1938,MID,3.0.7,60.13952080113049,
SmallPun,3000,0,0,0,0,0,2,2,2,3000,None,1.5,"[0.26975015500283916, 0.23704319099852]",3,space,1,You did not lose $0.20!,4.8,5,3,0.48,66.66666666666666,0.2533966730006796,[],66.66666666666666,3,3,0.23704319099852,Adjusting RT...,,0001,001,.5,1,2019_Aug_05_1938,MID,3.0.7,60.13952080113049,
SmallReward,2000,0,0,0,0,0,3,3,3,2000,None,1.52,"[0.26975015500283916, 0.23704319099852, 0.25380520300313947]",4,space,1,You won $0.20!,5.0,2,4,0.48,75.0,0.2535328496681662,[1],66.66666666666666,3,3,0.25380520300313947,,,0001,001,.5,1,2019_Aug_05_1938,MID,3.0.7,60.13952080113049,
LgPun,2000,0,0,0,0,0,4,4,4,2000,None,1.52,"[0.26975015500283916, 0.23704319099852, 0.25380520300313947, 0.41962038099882193]",5,space,1,You did not lose $5.00!,5.0,4,5,0.48,80.0,0.29505473250083014,"[1, 1]",66.66666666666666,3,3,0.41962038099882193,,,0001,001,.5,1,2019_Aug_05_1938,MID,3.0.7,60.13952080113049,
Triangle,2500,0,0,0,0,0,5,5,5,2500,None,1.52,"[0.26975015500283916, 0.23704319099852, 0.25380520300313947, 0.41962038099882193, 0.3656553850014461]",6,space,1,You did not win or lose anything!,5.0,3,5,0.48,83.33333333333334,0.3091748630009533,"[1, 1]",66.66666666666666,3,3,0.3656553850014461,,,0001,001,.5,1,2019_Aug_05_1938,MID,3.0.7,60.13952080113049,
SmallReward,2500,0,0,0,0,0,6,6,6,2500,None,1.52,"[0.26975015500283916, 0.23704319099852, 0.25380520300313947, 0.41962038099882193, 0.3656553850014461]",7,None,0,You did not win $0.20!,5.0,2,6,0.45999999999999996,71.42857142857143,0.3091748630009533,[],66.66666666666666,6,3,,Adjusting RT...,,0001,001,.5,1,2019_Aug_05_1938,MID,3.0.7,60.13952080113049,
SmallReward,1500,0,0,0,0,0,7,7,7,1500,None,1.54,"[0.26975015500283916, 0.23704319099852, 0.25380520300313947, 0.41962038099882193, 0.3656553850014461]",8,None,0,You did not win $0.20!,5.0,2,7,0.45999999999999996,62.5,0.3091748630009533,[0],66.66666666666666,6,3,,,,0001,001,.5,1,2019_Aug_05_1938,MID,3.0.7,60.13952080113049,
LgReward,1500,0,0,0,0,0,8,8,8,1500,space,1.54,"[0.26975015500283916, 0.23704319099852, 0.25380520300313947, 0.41962038099882193, 0.3656553850014461]",9,None,0,You did not win $5.00!,5.0,1,8,0.45999999999999996,55.55555555555556,0.3091748630009533,"[0, 0]",66.66666666666666,6,3,,,1.3038610410003457,0001,001,.5,1,2019_Aug_05_1938,MID,3.0.7,60.13952080113049,
SmallPun,2000,0,0,0,0,0,9,9,9,2000,None,1.54,"[0.26975015500283916, 0.23704319099852, 0.25380520300313947, 0.41962038099882193, 0.3656553850014461, 0.21942822100027115]",10,space,1,You did not lose $0.20!,5.0,5,9,0.48,60.0,0.29421708933417295,[],49.99999999999999,9,3,0.21942822100027115,Adjusting RT...,,0001,001,.5,1,2019_Aug_05_1938,MID,3.0.7,60.13952080113049,
LgReward,2500,0,0,0,0,0,10,10,10,2500,None,1.52,"[0.26975015500283916, 0.23704319099852, 0.25380520300313947, 0.41962038099882193, 0.3656553850014461, 0.21942822100027115, 0.27066414699947927]",11,space,1,You won $5.00!,10.0,1,10,0.48,63.63636363636363,0.2908523832863596,[1],49.99999999999999,9,3,0.27066414699947927,,,0001,001,.5,1,2019_Aug_05_1938,MID,3.0.7,60.13952080113049,
LgPun,3500,0,0,0,0,0,11,11,11,3500,None,1.52,"[0.26975015500283916, 0.23704319099852, 0.25380520300313947, 0.41962038099882193, 0.3656553850014461, 0.21942822100027115, 0.27066414699947927]",12,None,0,You lost $5.00!,5.0,4,11,0.48,58.333333333333336,0.2908523832863596,"[1, 0]",49.99999999999999,9,3,,,,0001,001,.5,1,2019_Aug_05_1938,MID,3.0.7,60.13952080113049,
SmallPun,3500,0,0,0,0,0,12,12,12,3500,None,1.52,"[0.26975015500283916, 0.23704319099852, 0.25380520300313947, 0.41962038099882193, 0.3656553850014461, 0.21942822100027115, 0.27066414699947927, 0.25324985300176195]",13,space,1,You did not lose $0.20!,5.0,5,12,0.5,61.53846153846154,0.2861520670007849,[],49.99999999999999,12,3,0.25324985300176195,Adjusting RT...,,0001,001,.5,1,2019_Aug_05_1938,MID,3.0.7,60.13952080113049,
Triangle,1500,0,0,0,0,0,13,13,13,1500,None,1.5,"[0.26975015500283916, 0.23704319099852, 0.25380520300313947, 0.41962038099882193, 0.3656553850014461, 0.21942822100027115, 0.27066414699947927, 0.25324985300176195, 0.4008643579982163]",14,space,1,You did not win or lose anything!,5.0,3,12,0.5,64.28571428571429,0.2988978771116106,[],49.99999999999999,12,3,0.4008643579982163,,,0001,001,.5,1,2019_Aug_05_1938,MID,3.0.7,60.13952080113049,
LgPun,4000,0,0,0,0,0,14,14,14,4000,None,1.5,"[0.26975015500283916, 0.23704319099852, 0.25380520300313947, 0.41962038099882193, 0.3656553850014461, 0.21942822100027115, 0.27066414699947927, 0.25324985300176195, 0.4008643579982163, 0.2361858949989255]",15,space,1,You did not lose $5.00!,5.0,4,13,0.5,66.66666666666666,0.2926266789003421,[1],49.99999999999999,12,3,0.2361858949989255,,,0001,001,.5,1,2019_Aug_05_1938,MID,3.0.7,60.13952080113049,
Triangle,4000,0,0,0,0,0,15,15,15,4000,None,1.5,"[0.26975015500283916, 0.23704319099852, 0.25380520300313947, 0.41962038099882193, 0.3656553850014461, 0.21942822100027115, 0.27066414699947927, 0.25324985300176195, 0.4008643579982163, 0.2361858949989255, 0.28738050299944007]",16,space,1,You did not win or lose anything!,5.0,3,13,0.5,68.75,0.2921497538184419,[1],49.99999999999999,12,3,0.28738050299944007,,,0001,001,.5,1,2019_Aug_05_1938,MID,3.0.7,60.13952080113049,
LgPun,3000,0,0,0,0,0,16,16,16,3000,None,1.5,"[0.26975015500283916, 0.23704319099852, 0.25380520300313947, 0.41962038099882193, 0.3656553850014461, 0.21942822100027115, 0.27066414699947927, 0.25324985300176195, 0.4008643579982163, 0.2361858949989255, 0.28738050299944007, 0.4374023500022304]",17,space,1,You did not lose $5.00!,5.0,4,14,0.5,70.58823529411765,0.3042541368337576,"[1, 1]",49.99999999999999,12,3,0.4374023500022304,,,0001,001,.5,1,2019_Aug_05_1938,MID,3.0.7,60.13952080113049,
SmallPun,1500,0,0,0,0,0,17,17,17,1500,None,1.5,"[0.26975015500283916, 0.23704319099852, 0.25380520300313947, 0.41962038099882193, 0.3656553850014461, 0.21942822100027115, 0.27066414699947927, 0.25324985300176195, 0.4008643579982163, 0.2361858949989255, 0.28738050299944007, 0.4374023500022304]",18,None,0,You lost $0.20!,4.8,5,15,0.48,66.66666666666666,0.3042541368337576,[],66.66666666666666,15,3,,Adjusting RT...,,0001,001,.5,1,2019_Aug_05_1938,MID,3.0.7,60.13952080113049,
LgReward,2000,0,0,0,0,0,18,18,18,2000,None,1.52,"[0.26975015500283916, 0.23704319099852, 0.25380520300313947, 0.41962038099882193, 0.3656553850014461, 0.21942822100027115, 0.27066414699947927, 0.25324985300176195, 0.4008643579982163, 0.2361858949989255, 0.28738050299944007, 0.4374023500022304]",19,None,0,You did not win $5.00!,4.8,1,16,0.48,63.1578947368421,0.3042541368337576,[0],66.66666666666666,15,3,,,,0001,001,.5,1,2019_Aug_05_1938,MID,3.0.7,60.13952080113049,
SmallPun,4000,0,0,0,0,0,19,19,19,4000,None,1.52,"[0.26975015500283916, 0.23704319099852, 0.25380520300313947, 0.41962038099882193, 0.3656553850014461, 0.21942822100027115, 0.27066414699947927, 0.25324985300176195, 0.4008643579982163, 0.2361858949989255, 0.28738050299944007, 0.4374023500022304, 0.28618213799927616]",20,space,1,You did not lose $0.20!,4.8,5,17,0.48,65.0,0.30286398307725904,"[0, 1]",66.66666666666666,15,3,0.28618213799927616,,,0001,001,.5,1,2019_Aug_05_1938,MID,3.0.7,60.13952080113049,
SmallReward,1500,0,0,0,0,0,20,20,20,1500,None,1.52,"[0.26975015500283916, 0.23704319099852, 0.25380520300313947, 0.41962038099882193, 0.3656553850014461, 0.21942822100027115, 0.27066414699947927, 0.25324985300176195, 0.4008643579982163, 0.2361858949989255, 0.28738050299944007, 0.4374023500022304, 0.28618213799927616, 0.30272298799900454]",21,space,1,You won $0.20!,5.0,2,18,0.45999999999999996,66.66666666666666,0.30285391200024087,[],66.66666666666666,18,3,0.30272298799900454,Adjusting RT...,,0001,001,.5,1,2019_Aug_05_1938,MID,3.0.7,60.13952080113049,
LgPun,1500,0,0,0,0,0,21,21,21,1500,None,1.54,"[0.26975015500283916, 0.23704319099852, 0.25380520300313947, 0.41962038099882193, 0.3656553850014461, 0.21942822100027115, 0.27066414699947927, 0.25324985300176195, 0.4008643579982163, 0.2361858949989255, 0.28738050299944007, 0.4374023500022304, 0.28618213799927616, 0.30272298799900454, 0.2542487499995332]",22,space,1,You did not lose $5.00!,5.0,4,19,0.45999999999999996,68.18181818181817,0.29961356786686033,[1],66.66666666666666,18,3,0.2542487499995332,,,0001,001,.5,1,2019_Aug_05_1938,MID,3.0.7,60.13952080113049,
LgReward,3500,0,0,0,0,0,22,22,22,3500,None,1.54,"[0.26975015500283916, 0.23704319099852, 0.25380520300313947, 0.41962038099882193, 0.3656553850014461, 0.21942822100027115, 0.27066414699947927, 0.25324985300176195, 0.4008643579982163, 0.2361858949989255, 0.28738050299944007, 0.4374023500022304, 0.28618213799927616, 0.30272298799900454, 0.2542487499995332, 0.23634471600234974]",23,space,1,You won $5.00!,10.0,1,20,0.45999999999999996,69.56521739130434,0.29565926462532843,"[1, 1]",66.66666666666666,18,3,0.23634471600234974,,,0001,001,.5,1,2019_Aug_05_1938,MID,3.0.7,60.13952080113049,
SmallReward,4000,0,0,0,0,0,23,23,23,4000,None,1.54,"[0.26975015500283916, 0.23704319099852, 0.25380520300313947, 0.41962038099882193, 0.3656553850014461, 0.21942822100027115, 0.27066414699947927, 0.25324985300176195, 0.4008643579982163, 0.2361858949989255, 0.28738050299944007, 0.4374023500022304, 0.28618213799927616, 0.30272298799900454, 0.2542487499995332, 0.23634471600234974, 0.2532307219989889]",24,space,1,You won $0.20!,10.2,2,21,0.42999999999999994,70.83333333333334,0.2931634680002496,[],83.33333333333333,21,3,0.2532307219989889,Adjusting RT...,,0001,001,.5,1,2019_Aug_05_1938,MID,3.0.7,60.13952080113049,
Triangle,2000,0,0,0,0,0,24,24,24,2000,None,1.57,"[0.26975015500283916, 0.23704319099852, 0.25380520300313947, 0.41962038099882193, 0.3656553850014461, 0.21942822100027115, 0.27066414699947927, 0.25324985300176195, 0.4008643579982163, 0.2361858949989255, 0.28738050299944007, 0.4374023500022304, 0.28618213799927616, 0.30272298799900454, 0.2542487499995332, 0.23634471600234974, 0.2532307219989889]",25,None,0,You did not win or lose anything!,10.2,3,21,0.42999999999999994,68.0,0.2931634680002496,[],83.33333333333333,21,3,,,,0001,001,.5,1,2019_Aug_05_1938,MID,3.0.7,60.13952080113049,
LgPun,2000,0,0,0,0,0,25,25,25,2000,None,1.57,"[0.26975015500283916, 0.23704319099852, 0.25380520300313947, 0.41962038099882193, 0.3656553850014461, 0.21942822100027115, 0.27066414699947927, 0.25324985300176195, 0.4008643579982163, 0.2361858949989255, 0.28738050299944007, 0.4374023500022304, 0.28618213799927616, 0.30272298799900454, 0.2542487499995332, 0.23634471600234974, 0.2532307219989889]",26,None,0,You lost $5.00!,5.199999999999999,4,22,0.42999999999999994,65.38461538461539,0.2931634680002496,[0],83.33333333333333,21,3,,,,0001,001,.5,1,2019_Aug_05_1938,MID,3.0.7,60.13952080113049,
SmallReward,2000,0,0,0,0,0,26,26,26,2000,None,1.57,"[0.26975015500283916, 0.23704319099852, 0.25380520300313947, 0.41962038099882193, 0.3656553850014461, 0.21942822100027115, 0.27066414699947927, 0.25324985300176195, 0.4008643579982163, 0.2361858949989255, 0.28738050299944007, 0.4374023500022304, 0.28618213799927616, 0.30272298799900454, 0.2542487499995332, 0.23634471600234974, 0.2532307219989889, 0.2700443150024512]",27,space,1,You won $0.20!,5.3999999999999995,2,23,0.42999999999999994,66.66666666666666,0.29187907061148305,"[0, 1]",83.33333333333333,21,3,0.2700443150024512,,,0001,001,.5,1,2019_Aug_05_1938,MID,3.0.7,60.13952080113049,
Triangle,3000,0,0,0,0,0,27,27,27,3000,None,1.57,"[0.26975015500283916, 0.23704319099852, 0.25380520300313947, 0.41962038099882193, 0.3656553850014461, 0.21942822100027115, 0.27066414699947927, 0.25324985300176195, 0.4008643579982163, 0.2361858949989255, 0.28738050299944007, 0.4374023500022304, 0.28618213799927616, 0.30272298799900454, 0.2542487499995332, 0.23634471600234974, 0.2532307219989889, 0.2700443150024512, 0.40234994899947196]",28,space,1,You did not win or lose anything!,5.3999999999999995,3,23,0.42999999999999994,67.85714285714286,0.29769332736874565,"[0, 1]",83.33333333333333,21,3,0.40234994899947196,,,0001,001,.5,1,2019_Aug_05_1938,MID,3.0.7,60.13952080113049,
SmallReward,3500,0,0,0,0,0,28,28,28,3500,None,1.57,"[0.26975015500283916, 0.23704319099852, 0.25380520300313947, 0.41962038099882193, 0.3656553850014461, 0.21942822100027115, 0.27066414699947927, 0.25324985300176195, 0.4008643579982163, 0.2361858949989255, 0.28738050299944007, 0.4374023500022304, 0.28618213799927616, 0.30272298799900454, 0.2542487499995332, 0.23634471600234974, 0.2532307219989889, 0.2700443150024512, 0.40234994899947196, 0.25390920900099445]",29,space,1,You won $0.20!,5.6,2,24,0.3999999999999999,68.96551724137932,0.2955041214503581,[],83.33333333333333,24,3,0.25390920900099445,Adjusting RT...,,0001,001,.5,1,2019_Aug_05_1938,MID,3.0.7,60.13952080113049,
Triangle,1500,0,0,0,0,0,29,29,29,1500,None,1.6,"[0.26975015500283916, 0.23704319099852, 0.25380520300313947, 0.41962038099882193, 0.3656553850014461, 0.21942822100027115, 0.27066414699947927, 0.25324985300176195, 0.4008643579982163, 0.2361858949989255, 0.28738050299944007, 0.4374023500022304, 0.28618213799927616, 0.30272298799900454, 0.2542487499995332, 0.23634471600234974, 0.2532307219989889, 0.2700443150024512, 0.40234994899947196, 0.25390920900099445, 0.35334073299964075]",30,space,1,You did not win or lose anything!,5.6,3,24,0.3999999999999999,70.0,0.2982582458098477,[],83.33333333333333,24,3,0.35334073299964075,,,0001,001,.5,1,2019_Aug_05_1938,MID,3.0.7,60.13952080113049,
SmallReward,1500,0,0,0,0,0,30,30,30,1500,None,1.6,"[0.26975015500283916, 0.23704319099852, 0.25380520300313947, 0.41962038099882193, 0.3656553850014461, 0.21942822100027115, 0.27066414699947927, 0.25324985300176195, 0.4008643579982163, 0.2361858949989255, 0.28738050299944007, 0.4374023500022304, 0.28618213799927616, 0.30272298799900454, 0.2542487499995332, 0.23634471600234974, 0.2532307219989889, 0.2700443150024512, 0.40234994899947196, 0.25390920900099445, 0.35334073299964075]",31,None,0,You did not win $0.20!,5.6,2,25,0.3999999999999999,67.74193548387096,0.2982582458098477,[0],83.33333333333333,24,3,,,,0001,001,.5,1,2019_Aug_05_1938,MID,3.0.7,60.13952080113049,
Triangle,2000,0,0,0,0,0,31,31,31,2000,None,1.6,"[0.26975015500283916, 0.23704319099852, 0.25380520300313947, 0.41962038099882193, 0.3656553850014461, 0.21942822100027115, 0.27066414699947927, 0.25324985300176195, 0.4008643579982163, 0.2361858949989255, 0.28738050299944007, 0.4374023500022304, 0.28618213799927616, 0.30272298799900454, 0.2542487499995332, 0.23634471600234974, 0.2532307219989889, 0.2700443150024512, 0.40234994899947196, 0.25390920900099445, 0.35334073299964075]",32,None,0,You did not win or lose anything!,5.6,3,25,0.3999999999999999,65.625,0.2982582458098477,[0],83.33333333333333,24,3,,,,0001,001,.5,1,2019_Aug_05_1938,MID,3.0.7,60.13952080113049,
LgPun,1500,0,0,0,0,0,32,32,32,1500,None,1.6,"[0.26975015500283916, 0.23704319099852, 0.25380520300313947, 0.41962038099882193, 0.3656553850014461, 0.21942822100027115, 0.27066414699947927, 0.25324985300176195, 0.4008643579982163, 0.2361858949989255, 0.28738050299944007, 0.4374023500022304, 0.28618213799927616, 0.30272298799900454, 0.2542487499995332, 0.23634471600234974, 0.2532307219989889, 0.2700443150024512, 0.40234994899947196, 0.25390920900099445, 0.35334073299964075, 0.33249959299791954]",33,space,1,You did not lose $5.00!,5.6,4,26,0.3999999999999999,66.66666666666666,0.2998146706820328,"[0, 1]",83.33333333333333,24,3,0.33249959299791954,,,0001,001,.5,1,2019_Aug_05_1938,MID,3.0.7,60.13952080113049,
Triangle,3500,0,0,0,0,0,33,33,33,3500,None,1.6,"[0.26975015500283916, 0.23704319099852, 0.25380520300313947, 0.41962038099882193, 0.3656553850014461, 0.21942822100027115, 0.27066414699947927, 0.25324985300176195, 0.4008643579982163, 0.2361858949989255, 0.28738050299944007, 0.4374023500022304, 0.28618213799927616, 0.30272298799900454, 0.2542487499995332, 0.23634471600234974, 0.2532307219989889, 0.2700443150024512, 0.40234994899947196, 0.25390920900099445, 0.35334073299964075, 0.33249959299791954, 0.253241242000513]",34,space,1,You did not win or lose anything!,5.6,3,26,0.3999999999999999,67.64705882352942,0.2977897390002276,"[0, 1]",83.33333333333333,24,3,0.253241242000513,,,0001,001,.5,1,2019_Aug_05_1938,MID,3.0.7,60.13952080113049,
LgPun,1500,0,0,0,0,0,34,34,34,1500,None,1.6,"[0.26975015500283916, 0.23704319099852, 0.25380520300313947, 0.41962038099882193, 0.3656553850014461, 0.21942822100027115, 0.27066414699947927, 0.25324985300176195, 0.4008643579982163, 0.2361858949989255, 0.28738050299944007, 0.4374023500022304, 0.28618213799927616, 0.30272298799900454, 0.2542487499995332, 0.23634471600234974, 0.2532307219989889, 0.2700443150024512, 0.40234994899947196, 0.25390920900099445, 0.35334073299964075, 0.33249959299791954, 0.253241242000513]",35,None,0,You lost $5.00!,0.5999999999999996,4,27,0.41999999999999993,65.71428571428571,0.2977897390002276,[],49.99999999999999,27,3,,Adjusting RT...,,0001,001,.5,1,2019_Aug_05_1938,MID,3.0.7,60.13952080113049,
Triangle,1500,0,0,0,0,0,35,35,35,1500,None,1.58,"[0.26975015500283916, 0.23704319099852, 0.25380520300313947, 0.41962038099882193, 0.3656553850014461, 0.21942822100027115, 0.27066414699947927, 0.25324985300176195, 0.4008643579982163, 0.2361858949989255, 0.28738050299944007, 0.4374023500022304, 0.28618213799927616, 0.30272298799900454, 0.2542487499995332, 0.23634471600234974, 0.2532307219989889, 0.2700443150024512, 0.40234994899947196, 0.25390920900099445, 0.35334073299964075, 0.33249959299791954, 0.253241242000513, 0.2867274099990027]",36,space,1,You did not win or lose anything!,0.5999999999999996,3,27,0.41999999999999993,66.66666666666666,0.2973288086251766,[],49.99999999999999,27,3,0.2867274099990027,,,0001,001,.5,1,2019_Aug_05_1938,MID,3.0.7,60.13952080113049,
SmallPun,1500,0,0,0,0,0,36,36,36,1500,None,1.58,"[0.26975015500283916, 0.23704319099852, 0.25380520300313947, 0.41962038099882193, 0.3656553850014461, 0.21942822100027115, 0.27066414699947927, 0.25324985300176195, 0.4008643579982163, 0.2361858949989255, 0.28738050299944007, 0.4374023500022304, 0.28618213799927616, 0.30272298799900454, 0.2542487499995332, 0.23634471600234974, 0.2532307219989889, 0.2700443150024512, 0.40234994899947196, 0.25390920900099445, 0.35334073299964075, 0.33249959299791954, 0.253241242000513, 0.2867274099990027]",37,None,0,You lost $0.20!,0.39999999999999963,5,28,0.41999999999999993,64.86486486486487,0.2973288086251766,[0],49.99999999999999,27,3,,,,0001,001,.5,1,2019_Aug_05_1938,MID,3.0.7,60.13952080113049,
LgReward,1500,0,0,0,0,0,37,37,37,1500,None,1.58,"[0.26975015500283916, 0.23704319099852, 0.25380520300313947, 0.41962038099882193, 0.3656553850014461, 0.21942822100027115, 0.27066414699947927, 0.25324985300176195, 0.4008643579982163, 0.2361858949989255, 0.28738050299944007, 0.4374023500022304, 0.28618213799927616, 0.30272298799900454, 0.2542487499995332, 0.23634471600234974, 0.2532307219989889, 0.2700443150024512, 0.40234994899947196, 0.25390920900099445, 0.35334073299964075, 0.33249959299791954, 0.253241242000513, 0.2867274099990027]",38,None,0,You did not win $5.00!,0.39999999999999963,1,29,0.41999999999999993,63.1578947368421,0.2973288086251766,"[0, 0]",49.99999999999999,27,3,,,,0001,001,.5,1,2019_Aug_05_1938,MID,3.0.7,60.13952080113049,
Triangle,1500,0,0,0,0,0,38,38,38,1500,None,1.58,"[0.26975015500283916, 0.23704319099852, 0.25380520300313947, 0.41962038099882193, 0.3656553850014461, 0.21942822100027115, 0.27066414699947927, 0.25324985300176195, 0.4008643579982163, 0.2361858949989255, 0.28738050299944007, 0.4374023500022304, 0.28618213799927616, 0.30272298799900454, 0.2542487499995332, 0.23634471600234974, 0.2532307219989889, 0.2700443150024512, 0.40234994899947196, 0.25390920900099445, 0.35334073299964075, 0.33249959299791954, 0.253241242000513, 0.2867274099990027, 0.30306939799993415]",39,space,1,You did not win or lose anything!,0.39999999999999963,3,29,0.41999999999999993,64.1025641025641,0.29755843220016687,"[0, 0]",49.99999999999999,27,3,0.30306939799993415,,,0001,001,.5,1,2019_Aug_05_1938,MID,3.0.7,60.13952080113049,
LgReward,2000,0,0,0,0,0,39,39,39,2000,None,1.58,"[0.26975015500283916, 0.23704319099852, 0.25380520300313947, 0.41962038099882193, 0.3656553850014461, 0.21942822100027115, 0.27066414699947927, 0.25324985300176195, 0.4008643579982163, 0.2361858949989255, 0.28738050299944007, 0.4374023500022304, 0.28618213799927616, 0.30272298799900454, 0.2542487499995332, 0.23634471600234974, 0.2532307219989889, 0.2700443150024512, 0.40234994899947196, 0.25390920900099445, 0.35334073299964075, 0.33249959299791954, 0.253241242000513, 0.2867274099990027, 0.30306939799993415, 0.2889739840029506]",40,space,1,You won $5.00!,5.3999999999999995,1,30,0.4599999999999999,65.0,0.29722826111565853,[],33.33333333333333,30,3,0.2889739840029506,Adjusting RT...,,0001,001,.5,1,2019_Aug_05_1938,MID,3.0.7,60.13952080113049,
LgPun,2500,0,0,0,0,0,40,40,40,2500,None,1.54,"[0.26975015500283916, 0.23704319099852, 0.25380520300313947, 0.41962038099882193, 0.3656553850014461, 0.21942822100027115, 0.27066414699947927, 0.25324985300176195, 0.4008643579982163, 0.2361858949989255, 0.28738050299944007, 0.4374023500022304, 0.28618213799927616, 0.30272298799900454, 0.2542487499995332, 0.23634471600234974, 0.2532307219989889, 0.2700443150024512, 0.40234994899947196, 0.25390920900099445, 0.35334073299964075, 0.33249959299791954, 0.253241242000513, 0.2867274099990027, 0.30306939799993415, 0.2889739840029506, 0.37125682899932144]",41,space,1,You did not lose $5.00!,5.3999999999999995,4,31,0.4599999999999999,65.85365853658537,0.2999700599261646,[1],33.33333333333333,30,3,0.37125682899932144,,,0001,001,.5,1,2019_Aug_05_1938,MID,3.0.7,60.13952080113049,
LgReward,3000,0,0,0,0,0,41,41,41,3000,None,1.54,"[0.26975015500283916, 0.23704319099852, 0.25380520300313947, 0.41962038099882193, 0.3656553850014461, 0.21942822100027115, 0.27066414699947927, 0.25324985300176195, 0.4008643579982163, 0.2361858949989255, 0.28738050299944007, 0.4374023500022304, 0.28618213799927616, 0.30272298799900454, 0.2542487499995332, 0.23634471600234974, 0.2532307219989889, 0.2700443150024512, 0.40234994899947196, 0.25390920900099445, 0.35334073299964075, 0.33249959299791954, 0.253241242000513, 0.2867274099990027, 0.30306939799993415, 0.2889739840029506, 0.37125682899932144, 0.23746390900123515]",42,space,1,You won $5.00!,10.399999999999999,1,32,0.4599999999999999,66.66666666666666,0.2977376973931314,"[1, 1]",33.33333333333333,30,3,0.23746390900123515,,,0001,001,.5,1,2019_Aug_05_1938,MID,3.0.7,60.13952080113049,
LgPun,1500,0,0,0,0,0,42,42,42,1500,None,1.54,"[0.26975015500283916, 0.23704319099852, 0.25380520300313947, 0.41962038099882193, 0.3656553850014461, 0.21942822100027115, 0.27066414699947927, 0.25324985300176195, 0.4008643579982163, 0.2361858949989255, 0.28738050299944007, 0.4374023500022304, 0.28618213799927616, 0.30272298799900454, 0.2542487499995332, 0.23634471600234974, 0.2532307219989889, 0.2700443150024512, 0.40234994899947196, 0.25390920900099445, 0.35334073299964075, 0.33249959299791954, 0.253241242000513, 0.2867274099990027, 0.30306939799993415, 0.2889739840029506, 0.37125682899932144, 0.23746390900123515, 0.35236056099893176]",43,space,1,You did not lose $5.00!,10.399999999999999,4,33,0.4399999999999999,67.44186046511628,0.29962124441402105,[],66.66666666666666,33,3,0.35236056099893176,Adjusting RT...,,0001,001,.5,1,2019_Aug_05_1938,MID,3.0.7,60.13952080113049,
LgReward,1500,0,0,0,0,0,43,43,43,1500,None,1.56,"[0.26975015500283916, 0.23704319099852, 0.25380520300313947, 0.41962038099882193, 0.3656553850014461, 0.21942822100027115, 0.27066414699947927, 0.25324985300176195, 0.4008643579982163, 0.2361858949989255, 0.28738050299944007, 0.4374023500022304, 0.28618213799927616, 0.30272298799900454, 0.2542487499995332, 0.23634471600234974, 0.2532307219989889, 0.2700443150024512, 0.40234994899947196, 0.25390920900099445, 0.35334073299964075, 0.33249959299791954, 0.253241242000513, 0.2867274099990027, 0.30306939799993415, 0.2889739840029506, 0.37125682899932144, 0.23746390900123515, 0.35236056099893176, 0.287215477997961]",44,space,1,You won $5.00!,15.399999999999999,1,34,0.4399999999999999,68.18181818181817,0.2992077188668191,[1],66.66666666666666,33,3,0.287215477997961,,,0001,001,.5,1,2019_Aug_05_1938,MID,3.0.7,60.13952080113049,
SmallReward,3000,0,0,0,0,0,44,44,44,3000,None,1.56,"[0.26975015500283916, 0.23704319099852, 0.25380520300313947, 0.41962038099882193, 0.3656553850014461, 0.21942822100027115, 0.27066414699947927, 0.25324985300176195, 0.4008643579982163, 0.2361858949989255, 0.28738050299944007, 0.4374023500022304, 0.28618213799927616, 0.30272298799900454, 0.2542487499995332, 0.23634471600234974, 0.2532307219989889, 0.2700443150024512, 0.40234994899947196, 0.25390920900099445, 0.35334073299964075, 0.33249959299791954, 0.253241242000513, 0.2867274099990027, 0.30306939799993415, 0.2889739840029506, 0.37125682899932144, 0.23746390900123515, 0.35236056099893176, 0.287215477997961, 0.253447438000876]",45,space,1,You won $0.20!,15.599999999999998,2,35,0.4399999999999999,68.88888888888889,0.2977315807743693,"[1, 1]",66.66666666666666,33,3,0.253447438000876,,,0001,001,.5,1,2019_Aug_05_1938,MID,3.0.7,60.13952080113049,
SmallPun,1500,0,0,0,0,0,45,45,45,1500,None,1.56,"[0.26975015500283916, 0.23704319099852, 0.25380520300313947, 0.41962038099882193, 0.3656553850014461, 0.21942822100027115, 0.27066414699947927, 0.25324985300176195, 0.4008643579982163, 0.2361858949989255, 0.28738050299944007, 0.4374023500022304, 0.28618213799927616, 0.30272298799900454, 0.2542487499995332, 0.23634471600234974, 0.2532307219989889, 0.2700443150024512, 0.40234994899947196, 0.25390920900099445, 0.35334073299964075, 0.33249959299791954, 0.253241242000513, 0.2867274099990027, 0.30306939799993415, 0.2889739840029506, 0.37125682899932144, 0.23746390900123515, 0.35236056099893176, 0.287215477997961, 0.253447438000876, 0.3192408529976092]",46,space,1,You did not lose $0.20!,15.599999999999998,5,36,0.3899999999999999,69.56521739130434,0.2984037455313455,[],100.0,36,3,0.3192408529976092,Adjusting RT...,,0001,001,.5,1,2019_Aug_05_1938,MID,3.0.7,60.13952080113049,
LgReward,1500,0,0,0,0,0,46,46,46,1500,None,1.61,"[0.26975015500283916, 0.23704319099852, 0.25380520300313947, 0.41962038099882193, 0.3656553850014461, 0.21942822100027115, 0.27066414699947927, 0.25324985300176195, 0.4008643579982163, 0.2361858949989255, 0.28738050299944007, 0.4374023500022304, 0.28618213799927616, 0.30272298799900454, 0.2542487499995332, 0.23634471600234974, 0.2532307219989889, 0.2700443150024512, 0.40234994899947196, 0.25390920900099445, 0.35334073299964075, 0.33249959299791954, 0.253241242000513, 0.2867274099990027, 0.30306939799993415, 0.2889739840029506, 0.37125682899932144, 0.23746390900123515, 0.35236056099893176, 0.287215477997961, 0.253447438000876, 0.3192408529976092]",47,None,0,You did not win $5.00!,15.599999999999998,1,37,0.3899999999999999,68.08510638297872,0.2984037455313455,[0],100.0,36,3,,,,0001,001,.5,1,2019_Aug_05_1938,MID,3.0.7,60.13952080113049,
SmallPun,2500,0,0,0,0,0,47,47,47,2500,None,1.61,"[0.26975015500283916, 0.23704319099852, 0.25380520300313947, 0.41962038099882193, 0.3656553850014461, 0.21942822100027115, 0.27066414699947927, 0.25324985300176195, 0.4008643579982163, 0.2361858949989255, 0.28738050299944007, 0.4374023500022304, 0.28618213799927616, 0.30272298799900454, 0.2542487499995332, 0.23634471600234974, 0.2532307219989889, 0.2700443150024512, 0.40234994899947196, 0.25390920900099445, 0.35334073299964075, 0.33249959299791954, 0.253241242000513, 0.2867274099990027, 0.30306939799993415, 0.2889739840029506, 0.37125682899932144, 0.23746390900123515, 0.35236056099893176, 0.287215477997961, 0.253447438000876, 0.3192408529976092, 0.2681617800008098]",48,space,1,You did not lose $0.20!,15.599999999999998,5,38,0.3899999999999999,68.75,0.2974873223334505,"[0, 1]",100.0,36,3,0.2681617800008098,,,0001,001,.5,1,2019_Aug_05_1938,MID,3.0.7,60.13952080113049,
SmallReward,1500,0,0,0,0,0,48,48,48,1500,None,1.61,"[0.26975015500283916, 0.23704319099852, 0.25380520300313947, 0.41962038099882193, 0.3656553850014461, 0.21942822100027115, 0.27066414699947927, 0.25324985300176195, 0.4008643579982163, 0.2361858949989255, 0.28738050299944007, 0.4374023500022304, 0.28618213799927616, 0.30272298799900454, 0.2542487499995332, 0.23634471600234974, 0.2532307219989889, 0.2700443150024512, 0.40234994899947196, 0.25390920900099445, 0.35334073299964075, 0.33249959299791954, 0.253241242000513, 0.2867274099990027, 0.30306939799993415, 0.2889739840029506, 0.37125682899932144, 0.23746390900123515, 0.35236056099893176, 0.287215477997961, 0.253447438000876, 0.3192408529976092, 0.2681617800008098]",49,None,0,You did not win $0.20!,15.599999999999998,2,39,0.3699999999999999,67.3469387755102,0.2974873223334505,[],66.66666666666666,39,3,,Adjusting RT...,,0001,001,.5,1,2019_Aug_05_1938,MID,3.0.7,60.13952080113049,
SmallPun,1500,0,0,0,0,0,49,49,49,1500,None,1.6300000000000001,"[0.26975015500283916, 0.23704319099852, 0.25380520300313947, 0.41962038099882193, 0.3656553850014461, 0.21942822100027115, 0.27066414699947927, 0.25324985300176195, 0.4008643579982163, 0.2361858949989255, 0.28738050299944007, 0.4374023500022304, 0.28618213799927616, 0.30272298799900454, 0.2542487499995332, 0.23634471600234974, 0.2532307219989889, 0.2700443150024512, 0.40234994899947196, 0.25390920900099445, 0.35334073299964075, 0.33249959299791954, 0.253241242000513, 0.2867274099990027, 0.30306939799993415, 0.2889739840029506, 0.37125682899932144, 0.23746390900123515, 0.35236056099893176, 0.287215477997961, 0.253447438000876, 0.3192408529976092, 0.2681617800008098]",50,None,0,You lost $0.20!,15.399999999999999,5,40,0.3699999999999999,66.0,0.2974873223334505,[0],66.66666666666666,39,3,,,,0001,001,.5,1,2019_Aug_05_1938,MID,3.0.7,60.13952080113049,
,,0,0,0,0,,,,,,,,,,,,,,,,,,,,,,,,,,0001,001,.5,1,2019_Aug_05_1938,MID,3.0.7,60.13952080113049,
