Condition,FixationDur,trials.thisRepN,trials.thisTrialN,trials.thisN,trials.thisIndex,TrialOrder,cueImage.started,cueImage.stopped,FixationDur,fixation.started,fixation.stopped,fixationResp.keys,fixationResp.started,fixationResp.stopped,feedbackDur,Trial counter,Target.started,Target.stopped,probeResp.keys,probeResp.corr,probeResp.started,probeResp.stopped,msg,TrackEarnings,TrialType,NonNeutralTrialsNum,probeDur,percentacc_total,meanrt,UserAcc,Acc,AdjTrial,AdjTrialInc,feedback_resp.keys,feedback_resp.rt,OverallRT,probeResp.rt,AdjRTmsg,fixationResp.rt,participant,prac_or_scan,run,date,expName,psychopyVersion,frameRate,
LgReward,1500,0,0,0,0,TimeVersion3.csv,36.73439798199979,None,1500,38.75210719700044,None,None,38.75210719700044,None,1.6400000000000001,1,40.30233934599892,None,None,0,40.30233934599892,None,You did not win $5.00!,0,1,1,0.36,0.0,nan,[0],0,0,3,1,-0.008065310998063069,0.3519346890019369,,,,001,Scanner,1,2019_Sep_06_1102,MID,3.1.5,60.30067423658321,
Triangle,2500,0,1,1,1,,42.35269726000115,None,2500,44.38629795499946,None,None,44.38629795499946,None,1.6400000000000001,2,46.91878677000204,None,1,1,46.91878677000204,None,You did not win or lose anything!,0,3,1,0.36,50.0,0.2855443239968736,[0],0,0,3,None,,0.2855443239968736,0.2855443239968736,,,001,Scanner,1,2019_Sep_06_1102,MID,3.1.5,60.30067423658321,
SmallPun,1500,0,2,2,2,,48.969342197000515,None,1500,51.003003144000104,None,None,51.003003144000104,None,1.6400000000000001,3,52.5364748710017,None,1,1,52.5364748710017,None,You did not lose $0.20!,0,5,2,0.36,66.66666666666666,0.275207048498487,"[0, 1]",0,0,3,None,,0.2648697730001004,0.2648697730001004,,,001,Scanner,1,2019_Sep_06_1102,MID,3.1.5,60.30067423658321,
LgPun,2500,0,3,3,3,,54.58624640400012,None,2500,56.620295619999524,None,None,56.620295619999524,None,1.6400000000000001,4,59.15334821899887,None,1,1,59.15334821899887,None,You did not lose $5.00!,0,4,3,0.33999999999999997,75.0,0.26784337599868496,[],66.66666666666666,3,3,None,,0.253116030999081,0.253116030999081,Adjusting RT...,,001,Scanner,1,2019_Sep_06_1102,MID,3.1.5,60.30067423658321,
Triangle,1500,0,4,4,4,,61.203695201998926,None,1500,63.2372557910021,None,None,63.2372557910021,None,1.6600000000000001,5,64.76994562600157,None,1,1,64.76994562600157,None,You did not win or lose anything!,0,3,3,0.33999999999999997,80.0,0.2792590372491759,[],66.66666666666666,3,3,None,,0.3135060210006486,0.3135060210006486,,,001,Scanner,1,2019_Sep_06_1102,MID,3.1.5,60.30067423658321,
SmallReward,2000,0,5,5,5,,66.83778957200047,None,2000,68.87092695799947,None,None,68.87092695799947,None,1.6600000000000001,6,70.92070905000219,None,1,1,70.92070905000219,None,You won $0.20!,0.2,2,4,0.33999999999999997,83.33333333333334,0.27915539579989856,[1],66.66666666666666,3,3,None,,0.27874083000278915,0.27874083000278915,,,001,Scanner,1,2019_Sep_06_1102,MID,3.1.5,60.30067423658321,
SmallPun,3500,0,6,6,6,,72.95446996800092,None,3500,74.98804221200044,None,None,74.98804221200044,None,1.6600000000000001,7,78.52082136100216,None,1,1,78.52082136100216,None,You did not lose $0.20!,0.2,5,5,0.33999999999999997,85.71428571428571,0.279391167833334,"[1, 1]",66.66666666666666,3,3,None,,0.28057002800051123,0.28057002800051123,,,001,Scanner,1,2019_Sep_06_1102,MID,3.1.5,60.30067423658321,
Triangle,1500,0,7,7,7,,80.57115197800158,None,1500,82.60495455400087,None,None,82.60495455400087,None,1.6600000000000001,8,84.13873948100081,None,None,0,84.13873948100081,None,You did not win or lose anything!,0.2,3,5,0.33999999999999997,75.0,0.279391167833334,"[1, 1]",66.66666666666666,3,3,1,0.05401967600118951,0.3940196760011895,,,,001,Scanner,1,2019_Sep_06_1102,MID,3.1.5,60.30067423658321,
SmallReward,1500,0,8,8,8,,86.20515348399931,None,1500,88.23916245800137,None,None,88.23916245800137,None,1.6600000000000001,9,89.77931463500136,None,1,1,89.77931463500136,None,You won $0.20!,0.4,2,6,0.30999999999999994,77.77777777777779,0.2754983035717617,[],83.33333333333333,6,3,None,,0.25214111800232786,0.25214111800232786,Adjusting RT...,,001,Scanner,1,2019_Sep_06_1102,MID,3.1.5,60.30067423658321,
LgReward,2000,0,9,9,9,,91.83855601200048,None,2000,93.86171298000045,None,1,93.86171298000045,None,1.69,10,95.9226196540003,None,1,1,95.9226196540003,None,You won $5.00!,5.4,1,7,0.30999999999999994,80.0,0.2729143161254797,[1],83.33333333333333,6,3,None,,0.2548264040015056,0.2548264040015056,,1.2067730620001385,001,Scanner,1,2019_Sep_06_1102,MID,3.1.5,60.30067423658321,
Triangle,2000,0,10,10,10,,97.9564306780012,None,2000,99.98997868000151,None,None,99.98997868000151,None,1.69,11,102.02235125100196,None,None,0,102.02235125100196,None,You did not win or lose anything!,5.4,3,7,0.30999999999999994,72.72727272727273,0.2729143161254797,[1],83.33333333333333,6,3,None,,0.2548264040015056,,,,001,Scanner,1,2019_Sep_06_1102,MID,3.1.5,60.30067423658321,
SmallReward,1500,0,11,11,11,,104.08951514799992,None,1500,106.11332567600039,None,None,106.11332567600039,None,1.69,12,107.67277878399909,None,1,1,107.67277878399909,None,You won $0.20!,5.6000000000000005,2,8,0.30999999999999994,75.0,0.2674448335557018,"[1, 1]",83.33333333333333,6,3,None,,0.22368897299747914,0.22368897299747914,,,001,Scanner,1,2019_Sep_06_1102,MID,3.1.5,60.30067423658321,
SmallPun,4000,0,12,12,12,,109.72329594799885,None,4000,111.74706183200033,None,None,111.74706183200033,None,1.69,13,115.79034359100115,None,None,0,115.79034359100115,None,You lost $0.20!,5.4,5,9,0.2799999999999999,69.23076923076923,0.2674448335557018,[],83.33333333333333,9,3,1,0.009753132002515486,0.2897531320025154,,Adjusting RT...,,001,Scanner,1,2019_Sep_06_1102,MID,3.1.5,60.30067423658321,
Triangle,1500,0,13,13,13,,117.84112834000189,None,1500,119.86546525900121,None,None,119.86546525900121,None,1.7200000000000002,14,121.4077337939998,None,None,0,121.4077337939998,None,You did not win or lose anything!,5.4,3,9,0.2799999999999999,64.28571428571429,0.2674448335557018,[],83.33333333333333,9,3,1,0.009737594999023713,0.28973759499902363,,,,001,Scanner,1,2019_Sep_06_1102,MID,3.1.5,60.30067423658321,
LgPun,1500,0,14,14,14,,123.45786142900033,None,1500,125.48294910500044,None,None,125.48294910500044,None,1.7200000000000002,15,127.02453732600043,None,None,0,127.02453732600043,None,You lost $5.00!,0.40000000000000036,4,10,0.2799999999999999,60.0,0.2674448335557018,[0],83.33333333333333,9,3,None,,0.28973759499902363,,,,001,Scanner,1,2019_Sep_06_1102,MID,3.1.5,60.30067423658321,
SmallReward,3500,0,15,15,15,,129.08502155099995,None,3500,131.1171030459991,None,None,131.1171030459991,None,1.7200000000000002,16,134.66755316200215,None,None,0,134.66755316200215,None,You did not win $0.20!,0.40000000000000036,2,11,0.2799999999999999,56.25,0.2674448335557018,"[0, 0]",83.33333333333333,9,3,None,,0.28973759499902363,,,,001,Scanner,1,2019_Sep_06_1102,MID,3.1.5,60.30067423658321,
LgPun,3000,0,16,16,16,,136.72517069600144,None,3000,138.75103141,None,None,138.75103141,None,1.7200000000000002,17,141.7924538820007,None,1,1,141.7924538820007,None,You did not lose $5.00!,0.40000000000000036,4,12,0.29999999999999993,58.82352941176471,0.2648014937003609,[],49.99999999999999,12,3,None,,0.24101143500229227,0.24101143500229227,Adjusting RT...,,001,Scanner,1,2019_Sep_06_1102,MID,3.1.5,60.30067423658321,
Triangle,1500,0,17,17,17,,143.8259766580013,None,1500,145.85208711499945,None,None,145.85208711499945,None,1.7000000000000002,18,147.3869471450016,None,1,1,147.3869471450016,None,You did not win or lose anything!,0.40000000000000036,3,12,0.29999999999999993,61.111111111111114,0.2641280271821994,[],49.99999999999999,12,3,None,,0.2573933620005846,0.2573933620005846,,,001,Scanner,1,2019_Sep_06_1102,MID,3.1.5,60.30067423658321,
LgReward,3500,0,18,18,18,,149.43574537099994,None,3500,151.46941211900048,None,None,151.46941211900048,None,1.7000000000000002,19,155.02009189100136,None,1,1,155.02009189100136,None,You won $5.00!,5.4,1,13,0.29999999999999993,63.1578947368421,0.2627242187503119,[1],49.99999999999999,12,3,None,,0.24728232599954936,0.24728232599954936,,,001,Scanner,1,2019_Sep_06_1102,MID,3.1.5,60.30067423658321,
LgPun,1500,0,19,19,19,,157.05991771200206,None,1500,159.08746830900054,None,None,159.08746830900054,None,1.7000000000000002,20,160.62077661900184,None,1,1,160.62077661900184,None,You did not lose $5.00!,5.4,4,14,0.29999999999999993,65.0,0.26041520546165814,"[1, 1]",49.99999999999999,12,3,None,,0.2327070459978131,0.2327070459978131,,,001,Scanner,1,2019_Sep_06_1102,MID,3.1.5,60.30067423658321,
SmallReward,1500,0,20,20,20,,162.67143986999872,None,1500,164.70480656699874,None,None,164.70480656699874,None,1.7000000000000002,21,166.2549749050013,None,1,1,166.2549749050013,None,You won $0.20!,5.6000000000000005,2,15,0.2799999999999999,66.66666666666666,0.2611267189287381,[],66.66666666666666,15,3,None,,0.2703763940007775,0.2703763940007775,Adjusting RT...,,001,Scanner,1,2019_Sep_06_1102,MID,3.1.5,60.30067423658321,
SmallReward,2000,0,21,21,21,,168.305046493002,None,2000,170.3383621489993,None,None,170.3383621489993,None,1.7200000000000002,22,172.38774218600156,None,1,1,172.38774218600156,None,You won $0.20!,5.800000000000001,2,16,0.2799999999999999,68.18181818181817,0.2579649940002128,[1],66.66666666666666,15,3,None,,0.21370084500085795,0.21370084500085795,,,001,Scanner,1,2019_Sep_06_1102,MID,3.1.5,60.30067423658321,
LgPun,2000,0,22,22,22,,174.4280611719987,None,2000,176.45682989499983,None,None,176.45682989499983,None,1.7200000000000002,23,178.48976699899868,None,1,1,178.48976699899868,None,You did not lose $5.00!,5.800000000000001,4,17,0.2799999999999999,69.56521739130434,0.2552606080625992,"[1, 1]",66.66666666666666,15,3,None,,0.21469481899839593,0.21469481899839593,,,001,Scanner,1,2019_Sep_06_1102,MID,3.1.5,60.30067423658321,
SmallPun,1500,0,23,23,23,,180.52841417799937,None,1500,182.55654003200107,None,None,182.55654003200107,None,1.7200000000000002,24,184.09421497600124,None,None,0,184.09421497600124,None,You lost $0.20!,5.6000000000000005,5,18,0.24999999999999992,66.66666666666666,0.2552606080625992,[],83.33333333333333,18,3,None,,0.21469481899839593,,Adjusting RT...,,001,Scanner,1,2019_Sep_06_1102,MID,3.1.5,60.30067423658321,
LgReward,4000,0,24,24,24,,186.14031377100036,None,4000,188.1740797700004,None,1,188.1740797700004,None,1.75,25,192.22521067500202,None,None,0,192.22521067500202,None,You did not win $5.00!,5.6000000000000005,1,19,0.24999999999999992,64.0,0.2552606080625992,[0],83.33333333333333,18,3,1,0.02379666799970437,0.27379666799970426,,,0.24829707899698406,001,Scanner,1,2019_Sep_06_1102,MID,3.1.5,60.30067423658321,
SmallReward,2500,0,25,25,25,,194.27551473900166,None,2500,196.30837186799909,None,None,196.30837186799909,None,1.75,26,198.8587994139998,None,None,0,198.8587994139998,None,You did not win $0.20!,5.6000000000000005,2,20,0.24999999999999992,61.53846153846154,0.2552606080625992,"[0, 0]",83.33333333333333,18,3,1,0.02175417199759977,0.27175417199759966,,,,001,Scanner,1,2019_Sep_06_1102,MID,3.1.5,60.30067423658321,
Triangle,4000,0,26,26,26,,200.89568661500016,None,4000,202.92614782799865,None,None,202.92614782799865,None,1.75,27,206.9599412790012,None,None,0,206.9599412790012,None,You did not win or lose anything!,5.6000000000000005,3,20,0.24999999999999992,59.25925925925925,0.2552606080625992,"[0, 0]",83.33333333333333,18,3,1,0.016723269000067376,0.26672326900006726,,,,001,Scanner,1,2019_Sep_06_1102,MID,3.1.5,60.30067423658321,
SmallPun,2000,0,27,27,27,,208.9963920629998,None,2000,211.02715753699886,None,None,211.02715753699886,None,1.75,28,213.06101960900196,None,None,0,213.06101960900196,None,You lost $0.20!,5.4,5,21,0.2899999999999999,57.14285714285714,0.2552606080625992,[],33.33333333333333,21,3,1,0.04641897799956496,0.3364189779995649,,Adjusting RT...,,001,Scanner,1,2019_Sep_06_1102,MID,3.1.5,60.30067423658321,
SmallReward,3000,0,28,28,28,,215.11091867100185,None,3000,217.1446764479988,None,1,217.1446764479988,None,1.71,29,220.19502069599912,None,1,1,220.19502069599912,None,You won $0.20!,5.6000000000000005,2,22,0.2899999999999999,58.620689655172406,0.25362354629417977,[1],33.33333333333333,21,3,None,,0.22743055799946887,0.22743055799946887,,0.8917756190021464,001,Scanner,1,2019_Sep_06_1102,MID,3.1.5,60.30067423658321,
LgReward,1500,0,29,29,29,,222.24474680099956,None,1500,224.27878970800157,None,None,224.27878970800157,None,1.71,30,225.82925871599946,None,None,0,225.82925871599946,None,You did not win $5.00!,5.6000000000000005,1,23,0.2899999999999999,56.666666666666664,0.25362354629417977,"[1, 0]",33.33333333333333,21,3,1,0.17253568100204575,0.4625356810020457,,,,001,Scanner,1,2019_Sep_06_1102,MID,3.1.5,60.30067423658321,
SmallPun,2000,0,30,30,30,,227.86437858600038,None,2000,229.89630742300142,None,None,229.89630742300142,None,1.71,31,231.929955642001,None,1,1,231.929955642001,None,You did not lose $0.20!,5.6000000000000005,5,24,0.3299999999999999,58.06451612903226,0.24400823138886255,[],33.33333333333333,24,3,None,,0.08054787799846963,0.08054787799846963,Adjusting RT...,,001,Scanner,1,2019_Sep_06_1102,MID,3.1.5,60.30067423658321,
LgPun,2000,0,31,31,31,,233.96463387100084,None,2000,235.9975984369994,None,None,235.9975984369994,None,1.6700000000000002,32,238.03060017000098,None,1,1,238.03060017000098,None,You did not lose $5.00!,5.6000000000000005,4,25,0.3299999999999999,59.375,0.24573688705258015,[1],33.33333333333333,24,3,None,,0.27685268899949733,0.27685268899949733,,,001,Scanner,1,2019_Sep_06_1102,MID,3.1.5,60.30067423658321,
LgReward,3000,0,32,32,32,,240.08090000399898,None,3000,242.11498289700103,None,None,242.11498289700103,None,1.6700000000000002,33,245.16517888700037,None,1,1,245.16517888700037,None,You won $5.00!,10.600000000000001,1,26,0.3299999999999999,60.60606060606061,0.24765786254993144,"[1, 1]",33.33333333333333,24,3,None,,0.28415639699960593,0.28415639699960593,,,001,Scanner,1,2019_Sep_06_1102,MID,3.1.5,60.30067423658321,
Triangle,3500,0,33,33,33,,247.2150289400015,None,3500,249.24918691700077,None,None,249.24918691700077,None,1.6700000000000002,34,252.78276445899974,None,None,0,252.78276445899974,None,You did not win or lose anything!,10.600000000000001,3,26,0.3299999999999999,58.82352941176471,0.24765786254993144,"[1, 1]",33.33333333333333,24,3,1,0.045000082998740254,0.37500008299874016,,,,001,Scanner,1,2019_Sep_06_1102,MID,3.1.5,60.30067423658321,
Triangle,3000,0,34,34,34,,254.8161723109988,None,3000,256.8504192190012,None,None,256.8504192190012,None,1.6700000000000002,35,259.8831977459995,None,1,1,259.8831977459995,None,You did not win or lose anything!,10.600000000000001,3,26,0.3299999999999999,60.0,0.25010836342837484,"[1, 1]",33.33333333333333,24,3,None,,0.29911838099724264,0.29911838099724264,,,001,Scanner,1,2019_Sep_06_1102,MID,3.1.5,60.30067423658321,
LgPun,1500,0,35,35,35,,261.9334528370018,None,1500,263.9672760329995,None,None,263.9672760329995,None,1.6700000000000002,36,265.5003232470008,None,1,1,265.5003232470008,None,You did not lose $5.00!,10.600000000000001,4,27,0.29999999999999993,61.111111111111114,0.24992793054529597,[],83.33333333333333,27,3,None,,0.2461388400006399,0.2461388400006399,Adjusting RT...,,001,Scanner,1,2019_Sep_06_1102,MID,3.1.5,60.30067423658321,
LgReward,1500,0,36,36,36,,267.56706933900205,None,1500,269.58384809700146,None,None,269.58384809700146,None,1.7000000000000002,37,271.1339845770017,None,1,1,271.1339845770017,None,You won $5.00!,15.600000000000001,1,28,0.29999999999999993,62.16216216216216,0.2502123269998423,[1],83.33333333333333,27,3,None,,0.2564690489998611,0.2564690489998611,,,001,Scanner,1,2019_Sep_06_1102,MID,3.1.5,60.30067423658321,
LgPun,3500,0,37,37,37,,273.16730279400144,None,3500,275.20111149999866,None,None,275.20111149999866,None,1.7000000000000002,38,278.7340221480008,None,None,0,278.7340221480008,None,You lost $5.00!,10.600000000000001,4,29,0.29999999999999993,60.526315789473685,0.2502123269998423,"[1, 0]",83.33333333333333,27,3,None,,0.2564690489998611,,,,001,Scanner,1,2019_Sep_06_1102,MID,3.1.5,60.30067423658321,
LgPun,1500,0,38,38,38,,280.76765647700086,None,1500,282.80085494800005,None,None,282.80085494800005,None,1.7000000000000002,39,284.3342018069998,None,1,1,284.3342018069998,None,You did not lose $5.00!,10.600000000000001,4,30,0.2699999999999999,61.53846153846154,0.25075557362485296,[],83.33333333333333,30,3,None,,0.26325024600009783,0.26325024600009783,Adjusting RT...,,001,Scanner,1,2019_Sep_06_1102,MID,3.1.5,60.30067423658321,
SmallPun,2500,0,39,39,39,,286.36812889000066,None,2500,288.4020287929998,None,None,288.4020287929998,None,1.73,40,290.93495319000067,None,None,0,290.93495319000067,None,You lost $0.20!,10.400000000000002,5,31,0.2699999999999999,60.0,0.25075557362485296,[0],83.33333333333333,30,3,1,0.010871776001295075,0.280871776001295,,,,001,Scanner,1,2019_Sep_06_1102,MID,3.1.5,60.30067423658321,
LgReward,1500,0,40,40,40,,292.98434570300014,None,1500,295.01892206900084,None,None,295.01892206900084,None,1.73,41,296.5687523779998,None,None,0,296.5687523779998,None,You did not win $5.00!,10.400000000000002,1,32,0.2699999999999999,58.536585365853654,0.25075557362485296,"[0, 0]",83.33333333333333,30,3,1,0.0031324510018748697,0.2731324510018748,,,,001,Scanner,1,2019_Sep_06_1102,MID,3.1.5,60.30067423658321,
SmallPun,1500,0,41,41,41,,298.61909021799875,None,1500,300.6530008209993,None,None,300.6530008209993,None,1.73,42,302.1852418460003,None,1,1,302.1852418460003,None,You did not lose $0.20!,10.400000000000002,5,33,0.2899999999999999,59.523809523809526,0.24925413699980709,[],49.99999999999999,33,3,None,,0.21321965799870668,0.21321965799870668,Adjusting RT...,,001,Scanner,1,2019_Sep_06_1102,MID,3.1.5,60.30067423658321,
Triangle,2000,0,42,42,42,,304.21931893999863,None,2000,306.2532919559999,None,None,306.2532919559999,None,1.71,43,308.2858806719996,None,1,1,308.2858806719996,None,You did not win or lose anything!,10.400000000000002,3,33,0.2899999999999999,60.46511627906976,0.24860878449978302,[],49.99999999999999,33,3,None,,0.23247497199918143,0.23247497199918143,,,001,Scanner,1,2019_Sep_06_1102,MID,3.1.5,60.30067423658321,
LgPun,4000,0,43,43,43,,310.31909551900026,None,4000,312.3524356400012,None,None,312.3524356400012,None,1.71,44,316.3866960640007,None,None,0,316.3866960640007,None,You lost $5.00!,5.400000000000002,4,34,0.2899999999999999,59.09090909090909,0.24860878449978302,[0],49.99999999999999,33,3,1,-0.001455757999792695,0.28854424200020723,,,,001,Scanner,1,2019_Sep_06_1102,MID,3.1.5,60.30067423658321,
SmallReward,1500,0,44,44,44,,318.45268497399957,None,1500,320.48722612599886,None,None,320.48722612599886,None,1.71,45,322.03736222800217,None,None,0,322.03736222800217,None,You did not win $0.20!,5.400000000000002,2,35,0.2899999999999999,57.77777777777777,0.24860878449978302,"[0, 0]",49.99999999999999,33,3,1,-0.009927109997079242,0.2800728900029207,,,,001,Scanner,1,2019_Sep_06_1102,MID,3.1.5,60.30067423658321,
LgReward,2500,0,45,45,45,,324.0874422369998,None,2500,326.1213151109987,None,None,326.1213151109987,None,1.71,46,328.66035371900216,None,None,0,328.66035371900216,None,You did not win $5.00!,5.400000000000002,1,36,0.3399999999999999,56.52173913043478,0.24860878449978302,[],16.666666666666664,36,3,1,-0.0009102260009967722,0.33908977399900314,,Adjusting RT...,,001,Scanner,1,2019_Sep_06_1102,MID,3.1.5,60.30067423658321,
SmallPun,3000,0,46,46,46,,330.7045414230015,None,3000,332.73842389499987,None,None,332.73842389499987,None,1.6600000000000001,47,335.77131776900205,None,1,1,335.77131776900205,None,You did not lose $0.20!,5.400000000000002,5,37,0.3399999999999999,57.446808510638306,0.25033186870347923,[1],16.666666666666664,36,3,None,,0.29513205799958087,0.29513205799958087,,,001,Scanner,1,2019_Sep_06_1102,MID,3.1.5,60.30067423658321,
LgReward,2000,0,47,47,47,,337.83833899599995,None,2000,339.8722152600021,None,None,339.8722152600021,None,1.6600000000000001,48,341.9219542610008,None,None,0,341.9219542610008,None,You did not win $5.00!,5.400000000000002,1,38,0.3399999999999999,56.25,0.25033186870347923,"[1, 0]",16.666666666666664,36,3,1,0.027962956999544986,0.3679629569995449,,,,001,Scanner,1,2019_Sep_06_1102,MID,3.1.5,60.30067423658321,
SmallReward,4000,0,48,48,48,,343.9720872079997,None,4000,345.99455117099933,None,None,345.99455117099933,None,1.6600000000000001,49,350.05529867800215,None,None,0,350.05529867800215,None,You did not win $0.20!,5.400000000000002,2,39,0.3899999999999999,55.10204081632652,0.25033186870347923,[],16.666666666666664,39,3,None,,0.3679629569995449,,Adjusting RT...,,001,Scanner,1,2019_Sep_06_1102,MID,3.1.5,60.30067423658321,
SmallPun,1500,0,49,49,49,,352.089191512001,None,1500,354.11195888899965,None,None,354.11195888899965,None,1.61,50,355.65543261900166,None,1,1,355.65543261900166,None,You did not lose $0.20!,5.400000000000002,5,40,0.3899999999999999,56.00000000000001,0.2516016219998554,[1],16.666666666666664,39,3,None,,0.28588496100201155,0.28588496100201155,,,001,Scanner,1,2019_Sep_06_1102,MID,3.1.5,60.30067423658321,
,,,,,,,,,,,,,,,,,,,,,,,,,,,,,,,,,,,,,,,,001,Scanner,1,2019_Sep_06_1102,MID,3.1.5,60.30067423658321,
