Condition,FixationDur,trials.thisRepN,trials.thisTrialN,trials.thisN,trials.thisIndex,TrialOrder,cueImage.started,cueImage.stopped,FixationDur,fixation.started,fixation.stopped,fixationResp.keys,fixationResp.started,fixationResp.stopped,feedbackDur,Trial counter,Target.started,Target.stopped,probeResp.keys,probeResp.corr,probeResp.rt,probeResp.started,probeResp.stopped,msg,TrackEarnings,TrialType,NonNeutralTrialsNum,probeDur,percentacc_total,meanrt,UserAcc,Acc,AdjTrial,AdjTrialInc,feedback_resp.keys,OverallRT,AdjRTmsg,feedback_resp.rt,fixationResp.rt,participant,prac_or_scan,run,date,expName,psychopyVersion,frameRate,
Triangle,2000,0,0,0,0,TimeVersion8.csv,43.675954369002284,None,2000,45.708599826000864,None,None,45.708599826000864,None,1.6400000000000001,1,47.74789544500163,None,1,1,0.2718419510019885,47.74789544500163,None,You did not win or lose anything!,0,3,0,0.36,100.0,0.2718419510019885,[],0,0,3,None,0.2718419510019885,,,,001,Scanner,2,2019_Sep_06_1108,MID,3.1.5,60.02840616167781,
SmallReward,3500,0,1,1,1,,49.80931666200195,None,3500,51.84311626300041,None,None,51.84311626300041,None,1.6400000000000001,2,55.39398308499949,None,1,1,0.26380876699840883,55.39398308499949,None,You won $0.20!,0.2,2,1,0.36,100.0,0.26782535900019866,[1],0,0,3,None,0.26380876699840883,,,,001,Scanner,2,2019_Sep_06_1108,MID,3.1.5,60.02840616167781,
LgPun,2000,0,2,2,2,,57.43197798700203,None,2000,59.46138677000272,None,None,59.46138677000272,None,1.6400000000000001,3,61.49480013200082,None,1,1,0.29494168200108106,61.49480013200082,None,You did not lose $5.00!,0.2,4,2,0.36,100.0,0.27686413333382615,"[1, 1]",0,0,3,None,0.29494168200108106,,,,001,Scanner,2,2019_Sep_06_1108,MID,3.1.5,60.02840616167781,
SmallReward,1500,0,3,3,3,,63.56120453400217,None,1500,65.59508820200062,None,None,65.59508820200062,None,1.6400000000000001,4,67.14528337700176,None,None,0,,67.14528337700176,None,You did not win $0.20!,0.2,2,3,0.33999999999999997,75.0,0.27686413333382615,[],66.66666666666666,3,3,1,0.32977422300231407,Adjusting RT...,-0.010225776997685898,,001,Scanner,2,2019_Sep_06_1108,MID,3.1.5,60.02840616167781,
LgReward,4000,0,4,4,4,,69.1786740030002,None,4000,71.21297521300221,None,1,71.21297521300221,None,1.6600000000000001,5,75.26275262800118,None,1,1,0.2709864969983755,75.26275262800118,None,You won $5.00!,5.2,1,4,0.33999999999999997,80.0,0.2753947242499635,[1],66.66666666666666,3,3,None,0.2709864969983755,,,0.30777545800083317,001,Scanner,2,2019_Sep_06_1108,MID,3.1.5,60.02840616167781,
LgPun,1500,0,5,5,5,,77.29601378799998,None,1500,79.32959074700193,None,None,79.32959074700193,None,1.6600000000000001,6,80.86404056700121,None,1,1,0.3107023329976073,80.86404056700121,None,You did not lose $5.00!,5.2,4,5,0.33999999999999997,83.33333333333334,0.28245624599949226,"[1, 1]",66.66666666666666,3,3,None,0.3107023329976073,,,,001,Scanner,2,2019_Sep_06_1108,MID,3.1.5,60.02840616167781,
Triangle,3500,0,6,6,6,,82.91379739700278,None,3500,84.94794719499987,None,1,84.94794719499987,None,1.6600000000000001,7,88.4811730950023,None,1,1,0.288571585999307,88.4811730950023,None,You did not win or lose anything!,5.2,3,5,0.33999999999999997,85.71428571428571,0.2834754693327947,"[1, 1]",66.66666666666666,3,3,None,0.288571585999307,,,3.2866642080007296,001,Scanner,2,2019_Sep_06_1108,MID,3.1.5,60.02840616167781,
LgPun,1500,0,7,7,7,,90.53359334700144,None,1500,92.56530947000283,None,None,92.56530947000283,None,1.6600000000000001,8,94.09837033800068,None,None,0,,94.09837033800068,None,You lost $5.00!,0.20000000000000018,4,6,0.31999999999999995,75.0,0.2834754693327947,[],66.66666666666666,6,3,1,0.3430967280003824,Adjusting RT...,0.023096728000382427,,001,Scanner,2,2019_Sep_06_1108,MID,3.1.5,60.02840616167781,
SmallReward,1500,0,8,8,8,,96.16567427500195,None,1500,98.20004536200213,None,None,98.20004536200213,None,1.6800000000000002,9,99.74896830900252,None,None,0,,99.74896830900252,None,You did not win $0.20!,0.20000000000000018,2,7,0.31999999999999995,66.66666666666666,0.2834754693327947,[0],66.66666666666666,6,3,1,0.31883905800015777,,-0.00116094199984218,,001,Scanner,2,2019_Sep_06_1108,MID,3.1.5,60.02840616167781,
SmallPun,2500,0,9,9,9,,101.78526529600276,None,2500,103.81718377500147,None,None,103.81718377500147,None,1.6800000000000002,10,106.35046481500103,None,1,1,0.2621620499994606,106.35046481500103,None,You did not lose $0.20!,0.20000000000000018,5,8,0.31999999999999995,70.0,0.2804306951423184,"[0, 1]",66.66666666666666,6,3,None,0.2621620499994606,,,,001,Scanner,2,2019_Sep_06_1108,MID,3.1.5,60.02840616167781,
SmallPun,1500,0,10,10,10,,108.38455323900052,None,1500,110.4176721440017,None,None,110.4176721440017,None,1.6800000000000002,11,111.96749370700127,None,None,0,,111.96749370700127,None,You lost $0.20!,1.6653345369377348e-16,5,9,0.33999999999999997,63.63636363636363,0.2804306951423184,[],49.99999999999999,9,3,1,0.3574748620011087,Adjusting RT...,0.017474862001108704,,001,Scanner,2,2019_Sep_06_1108,MID,3.1.5,60.02840616167781,
LgReward,3500,0,11,11,11,,114.03416488800212,None,3500,116.05201644300178,None,None,116.05201644300178,None,1.6600000000000001,12,119.60215961100039,None,1,1,0.26946701199995005,119.60215961100039,None,You won $5.00!,5.0,1,10,0.33999999999999997,66.66666666666666,0.27906023474952235,[1],49.99999999999999,9,3,None,0.26946701199995005,,,,001,Scanner,2,2019_Sep_06_1108,MID,3.1.5,60.02840616167781,
LgPun,1500,0,12,12,12,,121.63566162500138,None,1500,123.66993153400108,None,None,123.66993153400108,None,1.6600000000000001,13,125.20241419300146,None,None,0,,125.20241419300146,None,You lost $5.00!,0.0,4,11,0.33999999999999997,61.53846153846154,0.27906023474952235,"[1, 0]",49.99999999999999,9,3,1,0.34758091999887253,,0.0075809199988725595,,001,Scanner,2,2019_Sep_06_1108,MID,3.1.5,60.02840616167781,
SmallPun,2000,0,13,13,13,,127.23645226200097,None,2000,129.26977980499942,None,None,129.26977980499942,None,1.6600000000000001,14,131.30319149700154,None,1,1,0.2636202269968635,131.30319149700154,None,You did not lose $0.20!,0.0,5,12,0.36,64.28571428571429,0.27734467833256027,[],49.99999999999999,12,3,None,0.2636202269968635,Adjusting RT...,,,001,Scanner,2,2019_Sep_06_1108,MID,3.1.5,60.02840616167781,
LgReward,1500,0,14,14,14,,133.36977727700287,None,1500,135.40423905300122,None,None,135.40423905300122,None,1.6400000000000001,15,136.95394778899936,None,None,0,,136.95394778899936,None,You did not win $5.00!,0.0,1,13,0.36,60.0,0.27734467833256027,[0],49.99999999999999,12,3,1,0.44789929400154505,,0.08789929400154506,,001,Scanner,2,2019_Sep_06_1108,MID,3.1.5,60.02840616167781,
LgReward,1500,0,15,15,15,,139.00364797400107,None,1500,141.0373271690005,None,None,141.0373271690005,None,1.6400000000000001,16,142.5871837199993,None,1,1,0.2555570539989276,142.5871837199993,None,You won $5.00!,5.0,1,14,0.36,62.5,0.275165915899197,"[0, 1]",49.99999999999999,12,3,None,0.2555570539989276,,,,001,Scanner,2,2019_Sep_06_1108,MID,3.1.5,60.02840616167781,
SmallReward,2000,0,16,16,16,,144.63692799099954,None,2000,146.67161372100236,None,None,146.67161372100236,None,1.6400000000000001,17,148.72087580000152,None,None,0,,148.72087580000152,None,You did not win $0.20!,5.0,2,15,0.38,58.82352941176471,0.275165915899197,[],49.99999999999999,15,3,1,0.3952399440012232,Adjusting RT...,0.015239944001223193,,001,Scanner,2,2019_Sep_06_1108,MID,3.1.5,60.02840616167781,
LgReward,2500,0,17,17,17,,150.77180796800167,None,2500,152.80512770900168,None,None,152.80512770900168,None,1.62,18,155.3553127790001,None,1,1,0.2734044549979444,155.3553127790001,None,You won $5.00!,10.0,1,16,0.38,61.111111111111114,0.2750057830899922,[1],49.99999999999999,15,3,None,0.2734044549979444,,,,001,Scanner,2,2019_Sep_06_1108,MID,3.1.5,60.02840616167781,
LgReward,2000,0,18,18,18,,157.404901711001,None,2000,159.43846603100246,None,None,159.43846603100246,None,1.62,19,161.4880945210025,None,1,1,0.2485462330005248,161.4880945210025,None,You won $5.00!,15.0,1,17,0.38,63.1578947368421,0.2728008205825366,"[1, 1]",49.99999999999999,15,3,None,0.2485462330005248,,,,001,Scanner,2,2019_Sep_06_1108,MID,3.1.5,60.02840616167781,
SmallPun,1500,0,19,19,19,,163.52204005900057,None,1500,165.55559851699945,None,None,165.55559851699945,None,1.62,20,167.0889463780004,None,None,0,,167.0889463780004,None,You lost $0.20!,14.8,5,18,0.4,60.0,0.2728008205825366,[],49.99999999999999,18,3,None,0.2485462330005248,Adjusting RT...,,,001,Scanner,2,2019_Sep_06_1108,MID,3.1.5,60.02840616167781,
SmallReward,3000,0,20,20,20,,169.13936848600133,None,3000,171.1729172100022,None,1,171.1729172100022,None,1.6,21,174.22310093800115,None,1,1,0.25261722399955033,174.22310093800115,None,You won $0.20!,15.0,2,19,0.4,61.904761904761905,0.27124823622999916,[1],49.99999999999999,18,3,None,0.25261722399955033,,,0.2718295519989624,001,Scanner,2,2019_Sep_06_1108,MID,3.1.5,60.02840616167781,
Triangle,4000,0,21,21,21,,176.25648659500075,None,4000,178.2903695990026,None,None,178.2903695990026,None,1.6,22,182.3232027260019,None,1,1,0.27854293400014285,182.3232027260019,None,You did not win or lose anything!,15.0,3,19,0.4,63.63636363636363,0.27176928607072376,[1],49.99999999999999,18,3,None,0.27854293400014285,,,,001,Scanner,2,2019_Sep_06_1108,MID,3.1.5,60.02840616167781,
LgPun,2500,0,22,22,22,,184.35600911499932,None,2500,186.39075442300236,None,None,186.39075442300236,None,1.6,23,188.924139439001,None,1,1,0.3586057989996334,188.924139439001,None,You did not lose $5.00!,15.0,4,20,0.4,65.21739130434783,0.27755838693265106,"[1, 1]",49.99999999999999,18,3,None,0.3586057989996334,,,,001,Scanner,2,2019_Sep_06_1108,MID,3.1.5,60.02840616167781,
LgPun,2000,0,23,23,23,,190.95765027800007,None,2000,192.99135941600252,None,None,192.99135941600252,None,1.6,24,195.02447406899955,None,1,1,0.3572712379973382,195.02447406899955,None,You did not lose $5.00!,15.0,4,21,0.37,66.66666666666666,0.282540440124194,[],83.33333333333333,21,3,None,0.3572712379973382,Adjusting RT...,,,001,Scanner,2,2019_Sep_06_1108,MID,3.1.5,60.02840616167781,
Triangle,1500,0,24,24,24,,197.05844135900043,None,1500,199.09180155000286,None,None,199.09180155000286,None,1.63,25,200.62419403999957,None,1,1,0.2755507760011824,200.62419403999957,None,You did not win or lose anything!,15.0,3,21,0.37,68.0,0.2821292834110757,[],83.33333333333333,21,3,None,0.2755507760011824,,,,001,Scanner,2,2019_Sep_06_1108,MID,3.1.5,60.02840616167781,
LgPun,3000,0,25,25,25,,202.65851429599934,None,3000,204.69225185400137,None,None,204.69225185400137,None,1.63,26,207.72531040800095,None,1,1,0.25237648399706814,207.72531040800095,None,You did not lose $5.00!,15.0,4,22,0.37,69.23076923076923,0.2804763501102975,[1],83.33333333333333,21,3,None,0.25237648399706814,,,,001,Scanner,2,2019_Sep_06_1108,MID,3.1.5,60.02840616167781,
SmallPun,4000,0,26,26,26,,209.75868256600006,None,4000,211.7802917070003,None,None,211.7802917070003,None,1.63,27,215.82448294400092,None,1,1,0.3091498390022025,215.82448294400092,None,You did not lose $0.20!,15.0,5,23,0.37,70.37037037037037,0.28198548110460825,"[1, 1]",83.33333333333333,21,3,None,0.3091498390022025,,,,001,Scanner,2,2019_Sep_06_1108,MID,3.1.5,60.02840616167781,
Triangle,2000,0,27,27,27,,217.85930195900073,None,2000,219.8931505790024,None,None,219.8931505790024,None,1.63,28,221.92557166100232,None,None,0,,221.92557166100232,None,You did not win or lose anything!,15.0,3,23,0.37,67.85714285714286,0.28198548110460825,"[1, 1]",83.33333333333333,21,3,None,0.3091498390022025,,,,001,Scanner,2,2019_Sep_06_1108,MID,3.1.5,60.02840616167781,
SmallPun,1500,0,28,28,28,,223.95927162000226,None,1500,225.99343927399968,None,None,225.99343927399968,None,1.63,29,227.52642515000116,None,None,0,,227.52642515000116,None,You lost $0.20!,14.8,5,24,0.33999999999999997,65.51724137931035,0.28198548110460825,[],83.33333333333333,24,3,None,0.3091498390022025,Adjusting RT...,,,001,Scanner,2,2019_Sep_06_1108,MID,3.1.5,60.02840616167781,
SmallPun,2000,0,29,29,29,,229.5598276160017,None,2000,231.58337797900094,None,None,231.58337797900094,None,1.6600000000000001,30,233.62686277600005,None,1,1,0.2888976559988805,233.62686277600005,None,You did not lose $0.20!,14.8,5,25,0.33999999999999997,66.66666666666666,0.28233108984932187,[1],83.33333333333333,24,3,None,0.2888976559988805,,,,001,Scanner,2,2019_Sep_06_1108,MID,3.1.5,60.02840616167781,
LgReward,1500,0,30,30,30,,235.67693436800255,None,1500,237.7006397610021,None,None,237.7006397610021,None,1.6600000000000001,31,239.26030545200047,None,1,1,0.28345726000043214,239.26030545200047,None,You won $5.00!,19.8,1,26,0.33999999999999997,67.74193548387096,0.28238471699937473,"[1, 1]",83.33333333333333,24,3,None,0.28345726000043214,,,,001,Scanner,2,2019_Sep_06_1108,MID,3.1.5,60.02840616167781,
SmallReward,2500,0,31,31,31,,241.30249103000097,None,2500,243.34360781500072,None,None,243.34360781500072,None,1.6600000000000001,32,245.88546155900258,None,None,0,,245.88546155900258,None,You did not win $0.20!,19.8,2,27,0.31999999999999995,65.625,0.28238471699937473,[],66.66666666666666,27,3,1,0.4455940459996054,Adjusting RT...,0.12559404599960544,,001,Scanner,2,2019_Sep_06_1108,MID,3.1.5,60.02840616167781,
Triangle,1500,0,32,32,32,,247.9276634279995,None,1500,249.9524015900024,None,None,249.9524015900024,None,1.6800000000000002,33,251.49457395300124,None,1,1,0.217041801999585,251.49457395300124,None,You did not win or lose anything!,19.8,3,27,0.31999999999999995,66.66666666666666,0.2794145844993843,[],66.66666666666666,27,3,None,0.217041801999585,,,,001,Scanner,2,2019_Sep_06_1108,MID,3.1.5,60.02840616167781,
SmallReward,1500,0,33,33,33,,253.5363483910005,None,1500,255.56953156900272,None,None,255.56953156900272,None,1.6800000000000002,34,257.1195020590021,None,1,1,0.2862708470020152,257.1195020590021,None,You won $0.20!,20.0,2,28,0.31999999999999995,67.64705882352942,0.2797126828690639,[1],66.66666666666666,27,3,None,0.2862708470020152,,,,001,Scanner,2,2019_Sep_06_1108,MID,3.1.5,60.02840616167781,
LgReward,2000,0,34,34,34,,259.17094356600137,None,2000,261.2035516010001,None,None,261.2035516010001,None,1.6800000000000002,35,263.2536693250004,None,1,1,0.26193551599862985,263.2536693250004,None,You won $5.00!,25.0,1,29,0.31999999999999995,68.57142857142857,0.2789719675827958,"[1, 1]",66.66666666666666,27,3,None,0.26193551599862985,,,,001,Scanner,2,2019_Sep_06_1108,MID,3.1.5,60.02840616167781,
Triangle,1500,0,35,35,35,,265.29519691899986,None,1500,267.32144984800107,None,None,267.32144984800107,None,1.6800000000000002,36,268.8619814490012,None,None,0,,268.8619814490012,None,You did not win or lose anything!,25.0,3,29,0.31999999999999995,66.66666666666666,0.2789719675827958,"[1, 1]",66.66666666666666,27,3,1,0.34888098100083875,,0.0288809810008388,,001,Scanner,2,2019_Sep_06_1108,MID,3.1.5,60.02840616167781,
LgPun,4000,0,36,36,36,,270.8959491500027,None,4000,272.92165092300274,None,None,272.92165092300274,None,1.6800000000000002,37,276.957159632002,None,None,0,,276.957159632002,None,You lost $5.00!,20.0,4,30,0.29999999999999993,64.86486486486487,0.2789719675827958,[],66.66666666666666,30,3,None,0.34888098100083875,Adjusting RT...,,,001,Scanner,2,2019_Sep_06_1108,MID,3.1.5,60.02840616167781,
Triangle,1500,0,37,37,37,,278.99650116200064,None,1500,281.0231102930011,None,None,281.0231102930011,None,1.7000000000000002,38,282.5638218060012,None,None,0,,282.5638218060012,None,You did not win or lose anything!,20.0,3,30,0.29999999999999993,63.1578947368421,0.2789719675827958,[],66.66666666666666,30,3,None,0.34888098100083875,,,,001,Scanner,2,2019_Sep_06_1108,MID,3.1.5,60.02840616167781,
Triangle,3000,0,38,38,38,,284.5966197100024,None,3000,286.62342056200214,None,None,286.62342056200214,None,1.7000000000000002,39,289.6627402740014,None,None,0,,289.6627402740014,None,You did not win or lose anything!,20.0,3,30,0.29999999999999993,61.53846153846154,0.2789719675827958,[],66.66666666666666,30,3,1,0.3713131629963754,,0.07131316299637547,,001,Scanner,2,2019_Sep_06_1108,MID,3.1.5,60.02840616167781,
SmallPun,1500,0,39,39,39,,291.6965539900011,None,1500,293.7253402640017,None,None,293.7253402640017,None,1.7000000000000002,40,295.2588430950018,None,None,0,,295.2588430950018,None,You lost $0.20!,19.8,5,31,0.29999999999999993,60.0,0.2789719675827958,[0],66.66666666666666,30,3,1,0.3520706950046587,,0.052070695004658774,,001,Scanner,2,2019_Sep_06_1108,MID,3.1.5,60.02840616167781,
LgReward,3000,0,40,40,40,,297.30840186000205,None,3000,299.3425379500004,None,None,299.3425379500004,None,1.7000000000000002,41,302.39258250200146,None,None,0,,302.39258250200146,None,You did not win $5.00!,19.8,1,32,0.29999999999999993,58.536585365853654,0.2789719675827958,"[0, 0]",66.66666666666666,30,3,1,0.32766936099942534,,0.027669360999425407,,001,Scanner,2,2019_Sep_06_1108,MID,3.1.5,60.02840616167781,
LgPun,3500,0,41,41,41,,304.4479067280008,None,3500,306.47696026000267,None,None,306.47696026000267,None,1.7000000000000002,42,310.0108904990011,None,1,1,0.17276936100097373,310.0108904990011,None,You did not lose $5.00!,19.8,4,33,0.31999999999999995,59.523809523809526,0.2747238633195229,[],49.99999999999999,33,3,None,0.17276936100097373,Adjusting RT...,,,001,Scanner,2,2019_Sep_06_1108,MID,3.1.5,60.02840616167781,
Triangle,2500,0,42,42,42,,312.0481445170044,None,2500,314.0774334190028,None,None,314.0774334190028,None,1.6800000000000002,43,316.6119734010026,None,None,0,,316.6119734010026,None,You did not win or lose anything!,19.8,3,33,0.31999999999999995,58.139534883720934,0.2747238633195229,[],49.99999999999999,33,3,1,0.39279585200012657,,0.07279585200012662,,001,Scanner,2,2019_Sep_06_1108,MID,3.1.5,60.02840616167781,
SmallReward,1500,0,43,43,43,,318.66152797200266,None,1500,320.69493440899896,None,None,320.69493440899896,None,1.6800000000000002,44,322.2443467279991,None,1,1,0.01928285200119717,322.2443467279991,None,You won $0.20!,20.0,2,34,0.31999999999999995,59.09090909090909,0.26489920903804887,[1],49.99999999999999,33,3,1,0.01928285200119717,,0.05512178799835965,,001,Scanner,2,2019_Sep_06_1108,MID,3.1.5,60.02840616167781,
LgPun,1500,0,44,44,44,,324.2825314390029,None,1500,326.3122550980006,None,None,326.3122550980006,None,1.6800000000000002,45,327.845977175999,None,None,0,,327.845977175999,None,You lost $5.00!,15.0,4,35,0.31999999999999995,57.77777777777777,0.26489920903804887,"[1, 0]",49.99999999999999,33,3,1,0.35022285200131587,,0.030222852001315914,,001,Scanner,2,2019_Sep_06_1108,MID,3.1.5,60.02840616167781,
SmallReward,4000,0,45,45,45,,329.8957413200005,None,4000,331.93052837600044,None,None,331.93052837600044,None,1.6800000000000002,46,335.9801286699985,None,None,0,,335.9801286699985,None,You did not win $0.20!,15.0,2,36,0.35999999999999993,56.52173913043478,0.26489920903804887,[],33.33333333333333,36,3,1,0.40752781100251007,Adjusting RT...,0.047527811002510134,,001,Scanner,2,2019_Sep_06_1108,MID,3.1.5,60.02840616167781,
SmallPun,3500,0,46,46,46,,338.01403571800256,None,3500,340.04735665500266,None,None,340.04735665500266,None,1.6400000000000001,47,343.58137105399874,None,1,1,0.3123962140016374,343.58137105399874,None,You did not lose $0.20!,15.0,5,37,0.35999999999999993,57.446808510638306,0.2666583573700336,[1],33.33333333333333,36,3,None,0.3123962140016374,,,,001,Scanner,2,2019_Sep_06_1108,MID,3.1.5,60.02840616167781,
SmallPun,3000,0,47,47,47,,345.63394243300354,None,3000,347.66562389499813,None,None,347.66562389499813,None,1.6400000000000001,48,350.69831710300423,None,1,1,0.29442687799746636,350.69831710300423,None,You did not lose $0.20!,15.0,5,38,0.35999999999999993,58.333333333333336,0.2676500902495848,"[1, 1]",33.33333333333333,36,3,None,0.29442687799746636,,,,001,Scanner,2,2019_Sep_06_1108,MID,3.1.5,60.02840616167781,
LgReward,1500,0,48,48,48,,352.7487983420033,None,1500,354.78284035100296,None,None,354.78284035100296,None,1.6400000000000001,49,356.3324744380043,None,None,0,,356.3324744380043,None,You did not win $5.00!,15.0,1,39,0.37999999999999995,57.14285714285714,0.2676500902495848,[],49.99999999999999,39,3,1,0.39323466000030743,Adjusting RT...,0.013234660000307485,,001,Scanner,2,2019_Sep_06_1108,MID,3.1.5,60.02840616167781,
SmallReward,2000,0,49,49,49,,358.3835520649991,None,2000,360.4175252790046,None,None,360.4175252790046,None,1.62,50,362.4672807269999,None,1,1,0.3054609809987596,362.4672807269999,None,You won $0.20!,15.2,2,40,0.37999999999999995,57.99999999999999,0.26895391406852187,[1],49.99999999999999,39,3,None,0.3054609809987596,,,,001,Scanner,2,2019_Sep_06_1108,MID,3.1.5,60.02840616167781,
,,,,,,,,,,,,,,,,,,,,,,,,,,,,,,,,,,,,,,,,001,Scanner,2,2019_Sep_06_1108,MID,3.1.5,60.02840616167781,
