Condition,FixationDur,trials.thisRepN,trials.thisTrialN,trials.thisN,trials.thisIndex,TrialOrder,cueImage.started,cueImage.stopped,FixationDur,fixation.started,fixation.stopped,fixationResp.keys,fixationResp.started,fixationResp.stopped,feedbackDur,Trial counter,Target.started,Target.stopped,probeResp.keys,probeResp.corr,probeResp.started,probeResp.stopped,msg,TrackEarnings,TrialType,NonNeutralTrialsNum,probeDur,percentacc_total,meanrt,UserAcc,Acc,AdjTrial,AdjTrialInc,feedback_resp.keys,OverallRT,probeResp.rt,AdjRTmsg,feedback_resp.rt,participant,prac_or_scan,run,date,expName,psychopyVersion,frameRate,
Triangle,2000,0,0,0,0,TimeVersion8.csv,25.91877117600052,None,2000,27.953038752000793,None,None,27.953038752000793,None,1.6099999999999999,1,29.9914116430009,None,None,0,29.9914116430009,None,You did not win or lose anything!,0,3,0,0.39,0.0,nan,[],0,0,3,None,,,,,002,Scanner,1,2019_Sep_05_1113,MID,3.1.5,60.12717679516723,
SmallReward,3500,0,1,1,1,,32.069320337001045,None,3500,34.091620133000106,None,None,34.091620133000106,None,1.6099999999999999,2,37.644284983000034,None,1,1,37.644284983000034,None,You won $0.20!,0.2,2,1,0.39,50.0,0.31519896400095604,[1],0,0,3,None,0.31519896400095604,0.31519896400095604,,,002,Scanner,1,2019_Sep_05_1113,MID,3.1.5,60.12717679516723,
LgPun,2000,0,2,2,2,,39.686088693000784,None,2000,41.709549105000406,None,None,41.709549105000406,None,1.6099999999999999,3,43.75293697300003,None,1,1,43.75293697300003,None,You did not lose $5.00!,0.2,4,2,0.39,66.66666666666666,0.316390485500051,"[1, 1]",0,0,3,None,0.31758200699914596,0.31758200699914596,,,002,Scanner,1,2019_Sep_05_1113,MID,3.1.5,60.12717679516723,
SmallReward,1500,0,3,3,3,,45.793565838001086,None,1500,47.83659260700006,None,None,47.83659260700006,None,1.6099999999999999,4,49.37811257100111,None,None,0,49.37811257100111,None,You did not win $0.20!,0.2,2,3,0.37,50.0,0.316390485500051,[],66.66666666666666,3,3,1,0.41178232200138154,,Adjusting RT...,0.041782322001381544,002,Scanner,1,2019_Sep_05_1113,MID,3.1.5,60.12717679516723,
LgReward,4000,0,4,4,4,,51.45316504699986,None,4000,53.487213970000084,None,None,53.487213970000084,None,1.63,5,57.528668756000116,None,1,1,57.528668756000116,None,You won $5.00!,5.2,1,4,0.37,60.0,0.3139153389996257,[1],66.66666666666666,3,3,None,0.30896504599877517,0.30896504599877517,,,002,Scanner,1,2019_Sep_05_1113,MID,3.1.5,60.12717679516723,
LgPun,1500,0,5,5,5,,59.57185143599963,None,1500,61.59524493900062,None,None,61.59524493900062,None,1.63,6,63.13843383499989,None,None,0,63.13843383499989,None,You lost $5.00!,0.20000000000000018,4,5,0.37,50.0,0.3139153389996257,"[1, 0]",66.66666666666666,3,3,1,0.3915105319985014,,,0.021510531998501392,002,Scanner,1,2019_Sep_05_1113,MID,3.1.5,60.12717679516723,
Triangle,3500,0,6,6,6,,65.17169119100072,None,3500,67.19647324200014,None,None,67.19647324200014,None,1.63,7,70.73829572300019,None,None,0,70.73829572300019,None,You did not win or lose anything!,0.20000000000000018,3,5,0.37,42.857142857142854,0.3139153389996257,"[1, 0]",66.66666666666666,3,3,None,0.3915105319985014,,,,002,Scanner,1,2019_Sep_05_1113,MID,3.1.5,60.12717679516723,
LgPun,1500,0,7,7,7,,72.77186416299992,None,1500,74.79744734700034,None,None,74.79744734700034,None,1.63,8,76.33830425300039,None,1,1,76.33830425300039,None,You did not lose $5.00!,0.20000000000000018,4,6,0.35,50.0,0.306733533249826,[],66.66666666666666,6,3,None,0.2851881160004268,0.2851881160004268,Adjusting RT...,,002,Scanner,1,2019_Sep_05_1113,MID,3.1.5,60.12717679516723,
SmallReward,1500,0,8,8,8,,78.38200510500064,None,1500,80.4312793019999,None,None,80.4312793019999,None,1.65,9,81.98901277299956,None,None,0,81.98901277299956,None,You did not win $0.20!,0.20000000000000018,2,7,0.35,44.44444444444444,0.306733533249826,[0],66.66666666666666,6,3,1,0.3400670040005934,,,-0.009932995999406558,002,Scanner,1,2019_Sep_05_1113,MID,3.1.5,60.12717679516723,
SmallPun,2500,0,9,9,9,,84.02296844900047,None,2500,86.04872398100088,None,None,86.04872398100088,None,1.65,10,88.58976629900098,None,None,0,88.58976629900098,None,You lost $0.20!,1.6653345369377348e-16,5,8,0.35,40.0,0.306733533249826,"[0, 0]",66.66666666666666,6,3,1,0.34722108299829413,,,-0.0027789170017058495,002,Scanner,1,2019_Sep_05_1113,MID,3.1.5,60.12717679516723,
SmallPun,1500,0,10,10,10,,90.6227619679994,None,1500,92.6498614129996,None,None,92.6498614129996,None,1.65,11,94.19044763900092,None,1,1,94.19044763900092,None,You did not lose $0.20!,1.6653345369377348e-16,5,9,0.37,45.45454545454545,0.30639579519956894,[],49.99999999999999,9,3,None,0.30504484299854084,0.30504484299854084,Adjusting RT...,,002,Scanner,1,2019_Sep_05_1113,MID,3.1.5,60.12717679516723,
LgReward,3500,0,11,11,11,,96.23436425200089,None,3500,98.26710294199984,None,None,98.26710294199984,None,1.63,12,101.81719174200043,None,1,1,101.81719174200043,None,You won $5.00!,5.0,1,10,0.37,50.0,0.30639206099961785,[1],49.99999999999999,9,3,None,0.3063733899998624,0.3063733899998624,,,002,Scanner,1,2019_Sep_05_1113,MID,3.1.5,60.12717679516723,
LgPun,1500,0,12,12,12,,103.85784841299937,None,1500,105.88533955899948,None,None,105.88533955899948,None,1.63,13,107.42388157999994,None,1,1,107.42388157999994,None,You did not lose $5.00!,5.0,4,11,0.37,53.84615384615385,0.3078709167140395,"[1, 1]",49.99999999999999,9,3,None,0.316744051000569,0.316744051000569,,,002,Scanner,1,2019_Sep_05_1113,MID,3.1.5,60.12717679516723,
SmallPun,2000,0,13,13,13,,109.45706065000013,None,2000,111.48541594699964,None,None,111.48541594699964,None,1.63,14,113.52015320499959,None,1,1,113.52015320499959,None,You did not lose $0.20!,5.0,5,12,0.35,57.14285714285714,0.3060697253749822,[],66.66666666666666,12,3,None,0.29346138600158156,0.29346138600158156,Adjusting RT...,,002,Scanner,1,2019_Sep_05_1113,MID,3.1.5,60.12717679516723,
LgReward,1500,0,14,14,14,,115.56866561000061,None,1500,117.60300113899939,None,None,117.60300113899939,None,1.65,15,119.15237660300045,None,None,0,119.15237660300045,None,You did not win $5.00!,5.0,1,13,0.35,53.333333333333336,0.3060697253749822,[0],66.66666666666666,12,3,1,0.396950255999036,,,0.04695025599903602,002,Scanner,1,2019_Sep_05_1113,MID,3.1.5,60.12717679516723,
LgReward,1500,0,15,15,15,,121.20280234200072,None,1500,123.23735064799985,None,None,123.23735064799985,None,1.65,16,124.7867398239996,None,None,0,124.7867398239996,None,You did not win $5.00!,5.0,1,14,0.35,50.0,0.3060697253749822,"[0, 0]",66.66666666666666,12,3,None,0.396950255999036,,,,002,Scanner,1,2019_Sep_05_1113,MID,3.1.5,60.12717679516723,
SmallReward,2000,0,16,16,16,,126.83751215499979,None,2000,128.87106387200038,None,None,128.87106387200038,None,1.65,17,130.920354848,None,1,1,130.920354848,None,You won $0.20!,5.2,2,15,0.32999999999999996,52.94117647058824,0.3026491351109952,[],66.66666666666666,15,3,None,0.275284412999099,0.275284412999099,Adjusting RT...,,002,Scanner,1,2019_Sep_05_1113,MID,3.1.5,60.12717679516723,
LgReward,2500,0,17,17,17,,132.97095439800069,None,2500,135.00490383599936,None,None,135.00490383599936,None,1.67,18,137.55483188700055,None,1,1,137.55483188700055,None,You won $5.00!,10.2,1,16,0.32999999999999996,55.55555555555556,0.2976637526999184,[1],66.66666666666666,15,3,None,0.25279531100022723,0.25279531100022723,,,002,Scanner,1,2019_Sep_05_1113,MID,3.1.5,60.12717679516723,
LgReward,2000,0,18,18,18,,139.60541881599966,None,2000,141.6228625599997,None,None,141.6228625599997,None,1.67,19,143.6731566840008,None,1,1,143.6731566840008,None,You won $5.00!,15.2,1,17,0.32999999999999996,57.89473684210527,0.29673671272724855,"[1, 1]",66.66666666666666,15,3,None,0.28746631300055014,0.28746631300055014,,,002,Scanner,1,2019_Sep_05_1113,MID,3.1.5,60.12717679516723,
SmallPun,1500,0,19,19,19,,145.7095253589996,None,1500,147.7399772360004,None,None,147.7399772360004,None,1.67,20,149.27392196000073,None,1,1,149.27392196000073,None,You did not lose $0.20!,15.2,5,18,0.30999999999999994,60.0,0.2939010192499154,[],66.66666666666666,18,3,None,0.2627083909992507,0.2627083909992507,Adjusting RT...,,002,Scanner,1,2019_Sep_05_1113,MID,3.1.5,60.12717679516723,
SmallReward,3000,0,20,20,20,,151.32353837600022,None,3000,153.3579018170003,None,None,153.3579018170003,None,1.69,21,156.40812382900003,None,None,0,156.40812382900003,None,You did not win $0.20!,15.2,2,19,0.30999999999999994,57.14285714285714,0.2939010192499154,[0],66.66666666666666,18,3,None,0.2627083909992507,,,,002,Scanner,1,2019_Sep_05_1113,MID,3.1.5,60.12717679516723,
Triangle,4000,0,21,21,21,,158.46079431200087,None,4000,160.49173854699984,None,None,160.49173854699984,None,1.69,22,164.52545924600054,None,None,0,164.52545924600054,None,You did not win or lose anything!,15.2,3,19,0.30999999999999994,54.54545454545454,0.2939010192499154,[0],66.66666666666666,18,3,1,0.3228252079994126,,,0.012825207999412669,002,Scanner,1,2019_Sep_05_1113,MID,3.1.5,60.12717679516723,
LgPun,2500,0,22,22,22,,166.57793335300084,None,2500,168.60979546400085,None,None,168.60979546400085,None,1.69,23,171.1428521480011,None,1,1,171.1428521480011,None,You did not lose $5.00!,15.2,4,20,0.30999999999999994,56.52173913043478,0.2903478650767703,"[0, 1]",66.66666666666666,18,3,None,0.24771001499902923,0.24771001499902923,,,002,Scanner,1,2019_Sep_05_1113,MID,3.1.5,60.12717679516723,
LgPun,2000,0,23,23,23,,173.19512070900055,None,2000,175.22705841599964,None,None,175.22705841599964,None,1.69,24,177.26119564700093,None,1,1,177.26119564700093,None,You did not lose $5.00!,15.2,4,21,0.2799999999999999,58.333333333333336,0.2894254839998861,[],83.33333333333333,21,3,None,0.27743453000039153,0.27743453000039153,Adjusting RT...,,002,Scanner,1,2019_Sep_05_1113,MID,3.1.5,60.12717679516723,
Triangle,1500,0,24,24,24,,179.29554007499974,None,1500,181.32773833099964,None,None,181.32773833099964,None,1.7200000000000002,25,182.861446885001,None,None,0,182.861446885001,None,You did not win or lose anything!,15.2,3,21,0.2799999999999999,56.00000000000001,0.2894254839998861,[],83.33333333333333,21,3,1,0.2817792569997254,,,0.001779256999725476,002,Scanner,1,2019_Sep_05_1113,MID,3.1.5,60.12717679516723,
LgPun,3000,0,25,25,25,,184.91273998900033,None,3000,186.94524682100018,None,None,186.94524682100018,None,1.7200000000000002,26,189.97838536100062,None,None,0,189.97838536100062,None,You lost $5.00!,10.2,4,22,0.2799999999999999,53.84615384615385,0.2894254839998861,[0],83.33333333333333,21,3,1,0.29563498999894355,,,0.015634989998943638,002,Scanner,1,2019_Sep_05_1113,MID,3.1.5,60.12717679516723,
SmallPun,4000,0,26,26,26,,192.01325020500008,None,4000,194.04590597400056,None,None,194.04590597400056,None,1.7200000000000002,27,198.0795822880009,None,None,0,198.0795822880009,None,You lost $0.20!,10.0,5,23,0.2799999999999999,51.85185185185185,0.2894254839998861,"[0, 0]",83.33333333333333,21,3,1,0.28425718699989366,,,0.004257186999893747,002,Scanner,1,2019_Sep_05_1113,MID,3.1.5,60.12717679516723,
Triangle,2000,0,27,27,27,,200.11340475399993,None,2000,202.14708798500033,None,None,202.14708798500033,None,1.7200000000000002,28,204.1796556650006,None,None,0,204.1796556650006,None,You did not win or lose anything!,10.0,3,23,0.2799999999999999,50.0,0.2894254839998861,"[0, 0]",83.33333333333333,21,3,1,0.38833003699917745,,,0.10833003699917754,002,Scanner,1,2019_Sep_05_1113,MID,3.1.5,60.12717679516723,
SmallPun,1500,0,28,28,28,,206.23084715799996,None,1500,208.26467931800107,None,None,208.26467931800107,None,1.7200000000000002,29,209.79820155800007,None,None,0,209.79820155800007,None,You lost $0.20!,9.8,5,24,0.3199999999999999,48.275862068965516,0.2894254839998861,[],33.33333333333333,24,3,1,0.3400035879988717,,Adjusting RT...,0.020003587998871808,002,Scanner,1,2019_Sep_05_1113,MID,3.1.5,60.12717679516723,
SmallPun,2000,0,29,29,29,,211.8313984489996,None,2000,213.86505291899994,None,None,213.86505291899994,None,1.6800000000000002,30,215.89779924600043,None,None,0,215.89779924600043,None,You lost $0.20!,9.600000000000001,5,25,0.3199999999999999,46.666666666666664,0.2894254839998861,[0],33.33333333333333,24,3,1,0.3371533190004992,,,0.017153319000499323,002,Scanner,1,2019_Sep_05_1113,MID,3.1.5,60.12717679516723,
LgReward,1500,0,30,30,30,,217.94843494400084,None,1500,219.98157631499998,None,None,219.98157631499998,None,1.6800000000000002,31,221.53191675900052,None,1,1,221.53191675900052,None,You won $5.00!,14.600000000000001,1,26,0.3199999999999999,48.38709677419355,0.2866470589332797,"[0, 1]",33.33333333333333,24,3,None,0.24774910800078942,0.24774910800078942,,,002,Scanner,1,2019_Sep_05_1113,MID,3.1.5,60.12717679516723,
SmallReward,2500,0,31,31,31,,223.58197836100044,None,2500,225.6149589910001,None,None,225.6149589910001,None,1.6800000000000002,32,228.16547963999983,None,1,1,228.16547963999983,None,You won $0.20!,14.8,2,27,0.3599999999999999,50.0,0.284990407937471,[],33.33333333333333,27,3,None,0.2601406430003408,0.2601406430003408,Adjusting RT...,,002,Scanner,1,2019_Sep_05_1113,MID,3.1.5,60.12717679516723,
Triangle,1500,0,32,32,32,,230.19824083300045,None,1500,232.23231373099952,None,None,232.23231373099952,None,1.6400000000000001,33,233.76521939099985,None,None,0,233.76521939099985,None,You did not win or lose anything!,14.8,3,27,0.3599999999999999,48.484848484848484,0.284990407937471,[],33.33333333333333,27,3,1,0.9400361959991277,,,0.5800361959991278,002,Scanner,1,2019_Sep_05_1113,MID,3.1.5,60.12717679516723,
SmallReward,1500,0,33,33,33,,235.83207354200022,None,1500,237.86568036800054,None,None,237.86568036800054,None,1.6400000000000001,34,239.4158022440006,None,None,0,239.4158022440006,None,You did not win $0.20!,14.8,2,28,0.3599999999999999,47.05882352941176,0.284990407937471,[0],33.33333333333333,27,3,None,0.9400361959991277,,,,002,Scanner,1,2019_Sep_05_1113,MID,3.1.5,60.12717679516723,
LgReward,2000,0,34,34,34,,241.46563376099948,None,2000,243.49930797399975,None,None,243.49930797399975,None,1.6400000000000001,35,245.5495677580002,None,1,1,245.5495677580002,None,You won $5.00!,19.8,1,29,0.3599999999999999,48.57142857142857,0.28317012858828733,"[0, 1]",33.33333333333333,27,3,None,0.2540456590013491,0.2540456590013491,,,002,Scanner,1,2019_Sep_05_1113,MID,3.1.5,60.12717679516723,
Triangle,1500,0,35,35,35,,247.5830224300007,None,1500,249.616709240001,None,None,249.616709240001,None,1.6400000000000001,36,251.14991956499944,None,None,0,251.14991956499944,None,You did not win or lose anything!,19.8,3,29,0.3599999999999999,47.22222222222222,0.28317012858828733,"[0, 1]",33.33333333333333,27,3,None,0.2540456590013491,,,,002,Scanner,1,2019_Sep_05_1113,MID,3.1.5,60.12717679516723,
LgPun,4000,0,36,36,36,,253.20067845199992,None,4000,255.23425944300106,None,None,255.23425944300106,None,1.6400000000000001,37,259.2670094839996,None,1,1,259.2670094839996,None,You did not lose $5.00!,19.8,4,30,0.33999999999999986,48.64864864864865,0.2820277348888946,[],66.66666666666666,30,3,None,0.26260704199921747,0.26260704199921747,Adjusting RT...,,002,Scanner,1,2019_Sep_05_1113,MID,3.1.5,60.12717679516723,
Triangle,1500,0,37,37,37,,261.3178658649995,None,1500,263.3516530300003,None,None,263.3516530300003,None,1.6600000000000001,38,264.8840655040003,None,None,0,264.8840655040003,None,You did not win or lose anything!,19.8,3,30,0.33999999999999986,47.368421052631575,0.2820277348888946,[],66.66666666666666,30,3,1,0.3873328059997583,,,0.04733280599975842,002,Scanner,1,2019_Sep_05_1113,MID,3.1.5,60.12717679516723,
Triangle,3000,0,38,38,38,,266.91770975300096,None,3000,268.9390293110009,None,None,268.9390293110009,None,1.6600000000000001,39,271.98495512000045,None,1,1,271.98495512000045,None,You did not win or lose anything!,19.8,3,30,0.33999999999999986,48.717948717948715,0.2816402301578867,[],66.66666666666666,30,3,None,0.27466514499974437,0.27466514499974437,,,002,Scanner,1,2019_Sep_05_1113,MID,3.1.5,60.12717679516723,
SmallPun,1500,0,39,39,39,,274.035189831,None,1500,276.068514255001,None,None,276.068514255001,None,1.6600000000000001,40,277.6014635669999,None,None,0,277.6014635669999,None,You lost $0.20!,19.6,5,31,0.33999999999999986,47.5,0.2816402301578867,[0],66.66666666666666,30,3,None,0.27466514499974437,,,,002,Scanner,1,2019_Sep_05_1113,MID,3.1.5,60.12717679516723,
LgReward,3000,0,40,40,40,,279.651974978,None,3000,281.6861539290003,None,None,281.6861539290003,None,1.6600000000000001,41,284.7257551470011,None,1,1,284.7257551470011,None,You won $5.00!,24.6,1,32,0.33999999999999986,48.78048780487805,0.27899563064993343,"[0, 1]",66.66666666666666,30,3,None,0.2287482399988221,0.2287482399988221,,,002,Scanner,1,2019_Sep_05_1113,MID,3.1.5,60.12717679516723,
LgPun,3500,0,41,41,41,,286.7688385849997,None,3500,288.79244950700013,None,None,288.79244950700013,None,1.6600000000000001,42,292.33566427799997,None,None,0,292.33566427799997,None,You lost $5.00!,19.6,4,33,0.3599999999999999,47.61904761904761,0.27899563064993343,[],49.99999999999999,33,3,1,0.3619768450001719,,Adjusting RT...,0.001976845000172034,002,Scanner,1,2019_Sep_05_1113,MID,3.1.5,60.12717679516723,
Triangle,2500,0,42,42,42,,294.36905233499965,None,2500,296.39300159100094,None,None,296.39300159100094,None,1.6400000000000001,43,298.93717164699956,None,1,1,298.93717164699956,None,You did not win or lose anything!,19.6,3,33,0.3599999999999999,48.837209302325576,0.278964096714238,[],49.99999999999999,33,3,None,0.2783334180003294,0.2783334180003294,,,002,Scanner,1,2019_Sep_05_1113,MID,3.1.5,60.12717679516723,
SmallReward,1500,0,43,43,43,,301.0037342430005,None,1500,303.0269057509995,None,None,303.0269057509995,None,1.6400000000000001,44,304.5770203230004,None,None,0,304.5770203230004,None,You did not win $0.20!,19.6,2,34,0.3599999999999999,47.72727272727273,0.278964096714238,[0],49.99999999999999,33,3,None,0.2783334180003294,,,,002,Scanner,1,2019_Sep_05_1113,MID,3.1.5,60.12717679516723,
LgPun,1500,0,44,44,44,,306.6208496090003,None,1500,308.6539813800009,None,None,308.6539813800009,None,1.6400000000000001,45,310.18802101599977,None,1,1,310.18802101599977,None,You did not lose $5.00!,19.6,4,35,0.3599999999999999,48.888888888888886,0.27885753672721464,"[0, 1]",49.99999999999999,33,3,None,0.2766197769997234,0.2766197769997234,,,002,Scanner,1,2019_Sep_05_1113,MID,3.1.5,60.12717679516723,
SmallReward,4000,0,45,45,45,,312.24620765799955,None,4000,314.2787279839995,None,None,314.2787279839995,None,1.6400000000000001,46,318.3224371810011,None,1,1,318.3224371810011,None,You won $0.20!,19.8,2,36,0.3799999999999999,50.0,0.28043200804337254,[],49.99999999999999,36,3,None,0.31507037699884677,0.31507037699884677,Adjusting RT...,,002,Scanner,1,2019_Sep_05_1113,MID,3.1.5,60.12717679516723,
SmallPun,3500,0,46,46,46,,320.37160586400023,None,3500,322.3964418630003,None,None,322.3964418630003,None,1.62,47,325.9389748720005,None,1,1,325.9389748720005,None,You did not lose $0.20!,19.8,5,37,0.3799999999999999,51.06382978723404,0.2807332029581933,[1],49.99999999999999,36,3,None,0.2876606859990716,0.2876606859990716,,,002,Scanner,1,2019_Sep_05_1113,MID,3.1.5,60.12717679516723,
SmallPun,3000,0,47,47,47,,327.9720081590003,None,3000,329.9978304289998,None,None,329.9978304289998,None,1.62,48,333.0390434590008,None,1,1,333.0390434590008,None,You did not lose $0.20!,19.8,5,38,0.3799999999999999,52.083333333333336,0.2800878153198573,"[1, 1]",49.99999999999999,36,3,None,0.2645985119997931,0.2645985119997931,,,002,Scanner,1,2019_Sep_05_1113,MID,3.1.5,60.12717679516723,
LgReward,1500,0,48,48,48,,335.0827505030011,None,1500,337.11493990000054,None,None,337.11493990000054,None,1.62,49,338.6559642100001,None,1,1,338.6559642100001,None,You won $5.00!,24.8,1,39,0.34999999999999987,53.06122448979592,0.2824518041537046,[],83.33333333333333,39,3,None,0.34155152499988617,0.34155152499988617,Adjusting RT...,,002,Scanner,1,2019_Sep_05_1113,MID,3.1.5,60.12717679516723,
SmallReward,2000,0,49,49,49,,340.71673614999963,None,2000,342.7485162030007,None,None,342.7485162030007,None,1.6500000000000001,50,344.8056245709995,None,None,0,344.8056245709995,None,You did not win $0.20!,24.8,2,40,0.34999999999999987,52.0,0.2824518041537046,[0],83.33333333333333,39,3,1,0.5622254309997514,,,0.21222543099975155,002,Scanner,1,2019_Sep_05_1113,MID,3.1.5,60.12717679516723,
,,,,,,,,,,,,,,,,,,,,,,,,,,,,,,,,,,,,,,,002,Scanner,1,2019_Sep_05_1113,MID,3.1.5,60.12717679516723,
