Condition,FixationDur,trials.thisRepN,trials.thisTrialN,trials.thisN,trials.thisIndex,TrialOrder,cueImage.started,cueImage.stopped,FixationDur,fixation.started,fixation.stopped,fixationResp.keys,fixationResp.started,fixationResp.stopped,feedbackDur,Trial counter,Target.started,Target.stopped,probeResp.keys,probeResp.corr,probeResp.started,probeResp.stopped,msg,TrackEarnings,TrialType,NonNeutralTrialsNum,probeDur,percentacc_total,meanrt,UserAcc,Acc,AdjTrial,AdjTrialInc,feedback_resp.keys,feedback_resp.rt,OverallRT,fixationResp.rt,probeResp.rt,AdjRTmsg,participant,prac_or_scan,run,date,expName,psychopyVersion,frameRate,
Triangle,2000,0,0,0,0,TimeVersion9.csv,42.63759108600061,None,2000,44.67131618900021,None,None,44.67131618900021,None,1.71,1,46.714178679001634,None,None,0,46.714178679001634,None,You did not win or lose anything!,0,3,0,0.2899999999999999,0.0,nan,[],0,0,3,1,0.03391280000505503,0.32391280000505496,,,,003,Scanner,1,2019_Sep_07_1130,MID,3.1.5,60.175054770417404,
Triangle,1500,0,1,1,1,,48.78141031999985,None,1500,50.80626814900461,None,None,50.80626814900461,None,1.71,2,52.34794268800033,None,None,0,52.34794268800033,None,You did not win or lose anything!,0,3,0,0.2899999999999999,0.0,nan,[],0,0,3,1,0.022302254998066928,0.31230225499806685,,,,003,Scanner,1,2019_Sep_07_1130,MID,3.1.5,60.175054770417404,
LgPun,2500,0,2,2,2,,54.36501984300412,None,2500,56.389962907000154,None,1,56.389962907000154,None,1.71,3,58.93156210100278,None,None,0,58.93156210100278,None,You lost $5.00!,-5,4,1,0.2899999999999999,0.0,nan,[0],0,0,3,None,,0.31230225499806685,0.3294604690017877,,,003,Scanner,1,2019_Sep_07_1130,MID,3.1.5,60.175054770417404,
Triangle,1500,0,3,3,3,,60.96517866800423,None,1500,62.99116935799975,None,None,62.99116935799975,None,1.71,4,64.53184263900039,None,None,0,64.53184263900039,None,You did not win or lose anything!,-5,3,1,0.2899999999999999,0.0,nan,[0],0,0,3,1,-0.008144729996274691,0.28185527000372523,,,,003,Scanner,1,2019_Sep_07_1130,MID,3.1.5,60.175054770417404,
LgReward,1500,0,4,4,4,,66.59140301200387,None,1500,68.62481251999998,None,None,68.62481251999998,None,1.71,5,70.18306922500051,None,1,1,70.18306922500051,None,You won $5.00!,0,1,2,0.2899999999999999,20.0,0.2553605749999406,"[0, 1]",0,0,3,None,,0.2553605749999406,,0.2553605749999406,,003,Scanner,1,2019_Sep_07_1130,MID,3.1.5,60.175054770417404,
SmallPun,1500,0,5,5,5,,72.23291494700243,None,1500,74.25901143100054,None,None,74.25901143100054,None,1.71,6,75.79956147800112,None,None,0,75.79956147800112,None,You lost $0.20!,-0.2,5,3,0.3299999999999999,16.666666666666664,0.2553605749999406,[],33.33333333333333,3,3,1,0.20617430400307057,0.5361743040030704,,,Adjusting RT...,003,Scanner,1,2019_Sep_07_1130,MID,3.1.5,60.175054770417404,
LgPun,4000,0,6,6,6,,77.833607270004,None,4000,79.85992947400518,None,None,79.85992947400518,None,1.6700000000000002,7,83.89443963200029,None,1,1,83.89443963200029,None,You did not lose $5.00!,-0.2,4,4,0.3299999999999999,28.57142857142857,0.2616829400030838,[1],33.33333333333333,3,3,None,,0.268005305006227,,0.268005305006227,,003,Scanner,1,2019_Sep_07_1130,MID,3.1.5,60.175054770417404,
Triangle,3500,0,7,7,7,,85.95024146500509,None,3500,87.97746048399858,None,None,87.97746048399858,None,1.6700000000000002,8,91.51190200199926,None,1,1,91.51190200199926,None,You did not win or lose anything!,-0.2,3,4,0.3299999999999999,37.5,0.26760733200111037,[1],33.33333333333333,3,3,None,,0.2794561159971636,,0.2794561159971636,,003,Scanner,1,2019_Sep_07_1130,MID,3.1.5,60.175054770417404,
SmallReward,2500,0,8,8,8,,93.58419859200512,None,2500,95.61163195800327,None,None,95.61163195800327,None,1.6700000000000002,9,98.16200029500033,None,1,1,98.16200029500033,None,You won $0.20!,0.0,2,5,0.3299999999999999,44.44444444444444,0.26631596725201234,"[1, 1]",33.33333333333333,3,3,None,,0.2624418730047182,,0.2624418730047182,,003,Scanner,1,2019_Sep_07_1130,MID,3.1.5,60.175054770417404,
LgPun,2000,0,9,9,9,,100.21799984099925,None,2000,102.24593657199875,None,None,102.24593657199875,None,1.6700000000000002,10,104.27964675200201,None,1,1,104.27964675200201,None,You did not lose $5.00!,0.0,4,6,0.3099999999999999,50.0,0.2670127436023904,[],66.66666666666666,6,3,None,,0.26979984900390264,,0.26979984900390264,Adjusting RT...,003,Scanner,1,2019_Sep_07_1130,MID,3.1.5,60.175054770417404,
SmallPun,1500,0,10,10,10,,106.31857088000106,None,1500,108.34782080200239,None,None,108.34782080200239,None,1.6900000000000002,11,109.88489979800215,None,None,0,109.88489979800215,None,You lost $0.20!,-0.2,5,7,0.3099999999999999,45.45454545454545,0.2670127436023904,[0],66.66666666666666,6,3,1,0.02802592599618947,0.33802592599618936,,,,003,Scanner,1,2019_Sep_07_1130,MID,3.1.5,60.175054770417404,
SmallReward,3000,0,11,11,11,,111.94786722300341,None,3000,113.98112394100463,None,None,113.98112394100463,None,1.6900000000000002,12,117.03092109499994,None,1,1,117.03092109499994,None,You won $0.20!,0.0,2,8,0.3099999999999999,50.0,0.2647429991678412,"[0, 1]",66.66666666666666,6,3,None,,0.2533942769950954,,0.2533942769950954,,003,Scanner,1,2019_Sep_07_1130,MID,3.1.5,60.175054770417404,
LgPun,1500,0,12,12,12,,119.0854582739994,None,1500,121.11564821900538,None,None,121.11564821900538,None,1.6900000000000002,13,122.64924555000471,None,1,1,122.64924555000471,None,You did not lose $5.00!,0.0,4,9,0.2799999999999999,53.84615384615385,0.2638042185717495,[],83.33333333333333,9,3,None,,0.2581715349951992,,0.2581715349951992,Adjusting RT...,003,Scanner,1,2019_Sep_07_1130,MID,3.1.5,60.175054770417404,
SmallReward,1500,0,13,13,13,,124.71485591099918,None,1500,126.7493719990016,None,None,126.7493719990016,None,1.7200000000000002,14,128.29988832199888,None,None,0,128.29988832199888,None,You did not win $0.20!,0.0,2,10,0.2799999999999999,50.0,0.2638042185717495,[0],83.33333333333333,9,3,1,0.027041244000429288,0.3070412440004292,,,,003,Scanner,1,2019_Sep_07_1130,MID,3.1.5,60.175054770417404,
SmallReward,2000,0,14,14,14,,130.35117398500006,None,2000,132.38363614300033,None,None,132.38363614300033,None,1.7200000000000002,15,134.43302361600217,None,1,1,134.43302361600217,None,You won $0.20!,0.2,2,11,0.2799999999999999,53.333333333333336,0.2621330986248722,"[0, 1]",83.33333333333333,9,3,None,,0.25043525899673114,,0.25043525899673114,,003,Scanner,1,2019_Sep_07_1130,MID,3.1.5,60.175054770417404,
LgPun,2000,0,15,15,15,,136.46769698100252,None,2000,138.50071174299956,None,None,138.50071174299956,None,1.7200000000000002,16,140.5346833700023,None,1,1,140.5346833700023,None,You did not lose $5.00!,0.2,4,12,0.2599999999999999,56.25,0.2582021465552518,[],66.66666666666666,12,3,None,,0.2267545299982885,,0.2267545299982885,Adjusting RT...,003,Scanner,1,2019_Sep_07_1130,MID,3.1.5,60.175054770417404,
Triangle,2500,0,16,16,16,,142.5843022830013,None,2500,144.61866438900324,None,None,144.61866438900324,None,1.7400000000000002,17,147.15148187299928,None,1,1,147.15148187299928,None,You did not win or lose anything!,0.2,3,12,0.2599999999999999,58.82352941176471,0.25556452119926687,[],66.66666666666666,12,3,None,,0.23182589299540268,,0.23182589299540268,,003,Scanner,1,2019_Sep_07_1130,MID,3.1.5,60.175054770417404,
LgPun,1500,0,17,17,17,,149.2044350990036,None,1500,151.23629896200146,None,None,151.23629896200146,None,1.7400000000000002,18,152.7689621690006,None,None,0,152.7689621690006,None,You lost $5.00!,-4.8,4,13,0.2599999999999999,55.55555555555556,0.25556452119926687,[0],66.66666666666666,12,3,1,0.015414230001624674,0.27541423000162457,,,,003,Scanner,1,2019_Sep_07_1130,MID,3.1.5,60.175054770417404,
LgReward,3500,0,18,18,18,,154.83595958800288,None,3500,156.86993126100424,None,None,156.86993126100424,None,1.7400000000000002,19,160.41969724099908,None,None,0,160.41969724099908,None,You did not win $5.00!,-4.8,1,14,0.2599999999999999,52.63157894736842,0.25556452119926687,"[0, 0]",66.66666666666666,12,3,1,-0.0002940839985967614,0.25970591600140314,,,,003,Scanner,1,2019_Sep_07_1130,MID,3.1.5,60.175054770417404,
LgReward,1500,0,19,19,19,,162.4704131210019,None,1500,164.504623189001,None,None,164.504623189001,None,1.7400000000000002,20,166.05403877900244,None,None,0,166.05403877900244,None,You did not win $5.00!,-4.8,1,15,0.2999999999999999,50.0,0.25556452119926687,[],33.33333333333333,15,3,1,0.035135975005687214,0.3351359750056871,,,Adjusting RT...,003,Scanner,1,2019_Sep_07_1130,MID,3.1.5,60.175054770417404,
LgPun,3000,0,20,20,20,,168.08911533599894,None,3000,170.12084717299877,None,None,170.12084717299877,None,1.7000000000000002,21,173.1550244090031,None,1,1,173.1550244090031,None,You did not lose $5.00!,-4.8,4,16,0.2999999999999999,52.38095238095239,0.25618537036313105,[1],33.33333333333333,15,3,None,,0.2623938620017725,,0.2623938620017725,,003,Scanner,1,2019_Sep_07_1130,MID,3.1.5,60.175054770417404,
SmallPun,2000,0,21,21,21,,175.18958300100348,None,2000,177.22257032600464,None,None,177.22257032600464,None,1.7000000000000002,22,179.2561343250054,None,None,0,179.2561343250054,None,You lost $0.20!,-5.0,5,17,0.2999999999999999,50.0,0.25618537036313105,"[1, 0]",33.33333333333333,15,3,None,,0.2623938620017725,,,,003,Scanner,1,2019_Sep_07_1130,MID,3.1.5,60.175054770417404,
SmallReward,3500,0,22,22,22,,181.30653857000289,None,3500,183.34018347800156,None,None,183.34018347800156,None,1.7000000000000002,23,186.89055193700187,None,None,0,186.89055193700187,None,You did not win $0.20!,-5.0,2,18,0.34999999999999987,47.82608695652174,0.25618537036313105,[],16.666666666666664,18,3,1,-0.0028404659969964996,0.34715953400300337,,,Adjusting RT...,003,Scanner,1,2019_Sep_07_1130,MID,3.1.5,60.175054770417404,
LgReward,2500,0,23,23,23,,188.93960959499964,None,2500,190.9739305050025,None,None,190.9739305050025,None,1.6500000000000001,24,193.52388837100443,None,None,0,193.52388837100443,None,You did not win $5.00!,-5.0,1,19,0.34999999999999987,45.83333333333333,0.25618537036313105,[0],16.666666666666664,18,3,1,-0.009128860001510475,0.3408711399984894,,,,003,Scanner,1,2019_Sep_07_1130,MID,3.1.5,60.175054770417404,
SmallReward,4000,0,24,24,24,,195.5744662770012,None,4000,197.60767099000077,None,None,197.60767099000077,None,1.6500000000000001,25,201.65702631800377,None,1,1,201.65702631800377,None,You won $0.20!,-4.8,2,20,0.34999999999999987,48.0,0.25778659299976425,"[0, 1]",16.666666666666664,18,3,None,,0.2754000420027296,,0.2754000420027296,,003,Scanner,1,2019_Sep_07_1130,MID,3.1.5,60.175054770417404,
SmallPun,4000,0,25,25,25,,203.69175794500188,None,4000,205.72536742300144,None,None,205.72536742300144,None,1.6500000000000001,26,209.7586169730057,None,1,1,209.7586169730057,None,You did not lose $0.20!,-4.8,5,21,0.3699999999999999,50.0,0.2579415813843997,[],49.99999999999999,21,3,None,,0.2598014420000254,,0.2598014420000254,Adjusting RT...,003,Scanner,1,2019_Sep_07_1130,MID,3.1.5,60.175054770417404,
LgReward,2000,0,26,26,26,,211.80795694699918,None,2000,213.84259454700077,None,None,213.84259454700077,None,1.6300000000000001,27,215.90836185300577,None,1,1,215.90836185300577,None,You won $5.00!,0.20000000000000018,1,22,0.3699999999999999,51.85185185185185,0.26073871314292774,[1],49.99999999999999,21,3,None,,0.29710142600379186,,0.29710142600379186,,003,Scanner,1,2019_Sep_07_1130,MID,3.1.5,60.175054770417404,
LgReward,3000,0,27,27,27,,217.95954659400013,None,3000,219.99249512600363,None,None,219.99249512600363,None,1.6300000000000001,28,223.04293608000444,None,1,1,223.04293608000444,None,You won $5.00!,5.2,1,23,0.3699999999999999,53.57142857142857,0.2601885388668355,"[1, 1]",49.99999999999999,21,3,None,,0.25248609900154406,,0.25248609900154406,,003,Scanner,1,2019_Sep_07_1130,MID,3.1.5,60.175054770417404,
Triangle,4000,0,28,28,28,,225.07640383300168,None,4000,227.11025599900313,None,None,227.11025599900313,None,1.6300000000000001,29,231.1425454170021,None,None,0,231.1425454170021,None,You did not win or lose anything!,5.2,3,23,0.3699999999999999,51.724137931034484,0.2601885388668355,"[1, 1]",49.99999999999999,21,3,1,0.04116765900107566,0.41116765900107555,,,,003,Scanner,1,2019_Sep_07_1130,MID,3.1.5,60.175054770417404,
LgPun,1500,0,29,29,29,,233.17677828999877,None,1500,235.21000985400315,None,None,235.21000985400315,None,1.6300000000000001,30,236.7434276260028,None,1,1,236.7434276260028,None,You did not lose $5.00!,5.2,4,24,0.33999999999999986,53.333333333333336,0.25854443662547055,[],83.33333333333333,24,3,None,,0.23388290300499648,,0.23388290300499648,Adjusting RT...,003,Scanner,1,2019_Sep_07_1130,MID,3.1.5,60.175054770417404,
SmallReward,1500,0,30,30,30,,238.79409004100307,None,1500,240.82739864299947,None,None,240.82739864299947,None,1.6600000000000001,31,242.37755136600026,None,None,0,242.37755136600026,None,You did not win $0.20!,5.2,2,25,0.33999999999999986,51.61290322580645,0.25854443662547055,[0],83.33333333333333,24,3,1,0.23794498200004455,0.5779449820000444,,,,003,Scanner,1,2019_Sep_07_1130,MID,3.1.5,60.175054770417404,
LgReward,1500,0,31,31,31,,244.42722187600157,None,1500,246.46148413800256,None,1,246.46148413800256,None,1.6600000000000001,32,248.015098503005,None,None,0,248.015098503005,None,You did not win $5.00!,5.2,1,26,0.33999999999999986,50.0,0.25854443662547055,"[0, 0]",83.33333333333333,24,3,None,,0.5779449820000444,0.2838224799997988,,,003,Scanner,1,2019_Sep_07_1130,MID,3.1.5,60.175054770417404,
LgReward,4000,0,32,32,32,,250.07807205300196,None,4000,252.11127230800048,None,None,252.11127230800048,None,1.6600000000000001,33,256.16543776300387,None,1,1,256.16543776300387,None,You won $5.00!,10.2,1,27,0.31999999999999984,51.515151515151516,0.26045350005904977,[],66.66666666666666,27,3,None,,0.2909985149963177,,0.2909985149963177,Adjusting RT...,003,Scanner,1,2019_Sep_07_1130,MID,3.1.5,60.175054770417404,
SmallPun,3500,0,33,33,33,,258.211814979004,None,3500,260.2458196410007,None,None,260.2458196410007,None,1.6800000000000002,34,263.77916544700565,None,None,0,263.77916544700565,None,You lost $0.20!,10.0,5,28,0.31999999999999984,50.0,0.26045350005904977,[0],66.66666666666666,27,3,None,,0.2909985149963177,,,,003,Scanner,1,2019_Sep_07_1130,MID,3.1.5,60.175054770417404,
Triangle,1500,0,34,34,34,,265.81253411299986,None,1500,267.8454477730047,None,None,267.8454477730047,None,1.6800000000000002,35,269.37857475200144,None,None,0,269.37857475200144,None,You did not win or lose anything!,10.0,3,28,0.31999999999999984,48.57142857142857,0.26045350005904977,[0],66.66666666666666,27,3,None,,0.2909985149963177,,,,003,Scanner,1,2019_Sep_07_1130,MID,3.1.5,60.175054770417404,
Triangle,2000,0,35,35,35,,271.4122479100042,None,2000,273.43522717900487,None,None,273.43522717900487,None,1.6800000000000002,36,275.47949679800513,None,None,0,275.47949679800513,None,You did not win or lose anything!,10.0,3,28,0.31999999999999984,47.22222222222222,0.26045350005904977,[0],66.66666666666666,27,3,None,,0.2909985149963177,,,,003,Scanner,1,2019_Sep_07_1130,MID,3.1.5,60.175054770417404,
SmallPun,2000,0,36,36,36,,277.5132378010021,None,2000,279.54713622900454,None,None,279.54713622900454,None,1.6800000000000002,37,281.5795109969986,None,1,1,281.5795109969986,None,You did not lose $0.20!,10.0,5,29,0.31999999999999984,48.64864864864865,0.2608129539447772,"[0, 1]",66.66666666666666,27,3,None,,0.2669236700021429,,0.2669236700021429,,003,Scanner,1,2019_Sep_07_1130,MID,3.1.5,60.175054770417404,
LgPun,1500,0,37,37,37,,283.6132365240046,None,1500,285.6363575159994,None,None,285.6363575159994,None,1.6800000000000002,38,287.180260041001,None,1,1,287.180260041001,None,You did not lose $5.00!,10.0,4,30,0.33999999999999986,50.0,0.26130445157890025,[],49.99999999999999,30,3,None,,0.2701514089931152,,0.2701514089931152,Adjusting RT...,003,Scanner,1,2019_Sep_07_1130,MID,3.1.5,60.175054770417404,
LgPun,3500,0,38,38,38,,289.21383523799886,None,3500,291.2379055909987,None,None,291.2379055909987,None,1.6600000000000001,39,294.78125828700286,None,1,1,294.78125828700286,None,You did not lose $5.00!,10.0,4,31,0.33999999999999986,51.28205128205128,0.2622906305001379,[1],49.99999999999999,30,3,None,,0.28102803000365384,,0.28102803000365384,,003,Scanner,1,2019_Sep_07_1130,MID,3.1.5,60.175054770417404,
SmallPun,3000,0,39,39,39,,296.7978017409987,None,3000,298.82251829899906,None,None,298.82251829899906,None,1.6600000000000001,40,301.86435121700197,None,1,1,301.86435121700197,None,You did not lose $0.20!,10.0,5,32,0.33999999999999986,52.5,0.2629483140477705,"[1, 1]",49.99999999999999,30,3,None,,0.27610198500042316,,0.27610198500042316,,003,Scanner,1,2019_Sep_07_1130,MID,3.1.5,60.175054770417404,
LgReward,2000,0,40,40,40,,303.89837519499997,None,2000,305.9321257039992,None,None,305.9321257039992,None,1.6600000000000001,41,307.97320480000053,None,1,1,307.97320480000053,None,You won $5.00!,15.0,1,33,0.30999999999999983,53.65853658536586,0.2621416363637598,[],83.33333333333333,33,3,None,,0.24520140499953413,,0.24520140499953413,Adjusting RT...,003,Scanner,1,2019_Sep_07_1130,MID,3.1.5,60.175054770417404,
SmallPun,1500,0,41,41,41,,310.0155235909988,None,1500,312.04032751900377,None,None,312.04032751900377,None,1.6900000000000002,42,313.5822536190026,None,1,1,313.5822536190026,None,You did not lose $0.20!,15.0,5,34,0.30999999999999983,54.761904761904766,0.2619258872174491,[1],83.33333333333333,33,3,None,,0.2571794059986132,,0.2571794059986132,,003,Scanner,1,2019_Sep_07_1130,MID,3.1.5,60.175054770417404,
SmallReward,1500,0,42,42,42,,315.648818022004,None,1500,317.67406451800343,None,None,317.67406451800343,None,1.6900000000000002,43,319.2257987949997,None,1,1,319.2257987949997,None,You won $0.20!,15.2,2,35,0.30999999999999983,55.81395348837209,0.2617418855418994,"[1, 1]",83.33333333333333,33,3,None,,0.2575098470042576,,0.2575098470042576,,003,Scanner,1,2019_Sep_07_1130,MID,3.1.5,60.175054770417404,
SmallReward,1500,0,43,43,43,,321.2910689749988,None,1500,323.30811265200464,None,None,323.30811265200464,None,1.6900000000000002,44,324.85870018300193,None,1,1,324.85870018300193,None,You won $0.20!,15.399999999999999,2,36,0.25999999999999984,56.81818181818182,0.26130185012036233,[],100.0,36,3,None,,0.25074100000347244,,0.25074100000347244,Adjusting RT...,003,Scanner,1,2019_Sep_07_1130,MID,3.1.5,60.175054770417404,
LgReward,1500,0,44,44,44,,326.89242913100315,None,1500,328.9257646360056,None,None,328.9257646360056,None,1.7400000000000002,45,330.47721323500446,None,None,0,330.47721323500446,None,You did not win $5.00!,15.399999999999999,1,37,0.25999999999999984,55.55555555555556,0.26130185012036233,[0],100.0,36,3,1,-0.010224863995972555,0.2497751360040273,,,,003,Scanner,1,2019_Sep_07_1130,MID,3.1.5,60.175054770417404,
Triangle,1500,0,45,45,45,,332.53323067800375,None,1500,334.5594721900052,None,None,334.5594721900052,None,1.7400000000000002,46,336.0945123950005,None,None,0,336.0945123950005,None,You did not win or lose anything!,15.399999999999999,3,37,0.25999999999999984,54.347826086956516,0.26130185012036233,[0],100.0,36,3,None,,0.2497751360040273,,,,003,Scanner,1,2019_Sep_07_1130,MID,3.1.5,60.175054770417404,
SmallPun,1500,0,46,46,46,,338.1501565560029,None,1500,340.1771760970005,None,None,340.1771760970005,None,1.7400000000000002,47,341.71124973000406,None,None,0,341.71124973000406,None,You lost $0.20!,15.2,5,38,0.25999999999999984,53.191489361702125,0.26130185012036233,"[0, 0]",100.0,36,3,None,,0.2497751360040273,,,,003,Scanner,1,2019_Sep_07_1130,MID,3.1.5,60.175054770417404,
SmallPun,2500,0,47,47,47,,343.76728499399906,None,2500,345.794506475002,None,None,345.794506475002,None,1.7400000000000002,48,348.32831093600544,None,None,0,348.32831093600544,None,You lost $0.20!,15.0,5,39,0.27999999999999986,52.083333333333336,0.26130185012036233,[],50.0,39,3,None,,0.2497751360040273,,,Adjusting RT...,003,Scanner,1,2019_Sep_07_1130,MID,3.1.5,60.175054770417404,
Triangle,3000,0,48,48,48,,350.3678525300056,None,3000,352.39541922100034,None,None,352.39541922100034,None,1.7200000000000002,49,355.4289054129986,None,None,0,355.4289054129986,None,You did not win or lose anything!,15.0,3,39,0.27999999999999986,51.02040816326531,0.26130185012036233,[],50.0,39,3,None,,0.2497751360040273,,,,003,Scanner,1,2019_Sep_07_1130,MID,3.1.5,60.175054770417404,
SmallReward,2000,0,49,49,49,,357.4961909620033,None,2000,359.5128978940047,None,None,359.5128978940047,None,1.7200000000000002,50,361.5629090959992,None,1,1,361.5629090959992,None,You won $0.20!,15.2,2,40,0.27999999999999986,52.0,0.26107944503886615,[1],50.0,39,3,None,,0.2555193180014612,,0.2555193180014612,,003,Scanner,1,2019_Sep_07_1130,MID,3.1.5,60.175054770417404,
,,,,,,,,,,,,,,,,,,,,,,,,,,,,,,,,,,,,,,,,003,Scanner,1,2019_Sep_07_1130,MID,3.1.5,60.175054770417404,
