Condition,FixationDur,trials.thisRepN,trials.thisTrialN,trials.thisN,trials.thisIndex,TrialOrder,cueImage.started,cueImage.stopped,FixationDur,fixation.started,fixation.stopped,fixationResp.keys,fixationResp.started,fixationResp.stopped,feedbackDur,Trial counter,Target.started,Target.stopped,probeResp.keys,probeResp.corr,probeResp.rt,probeResp.started,probeResp.stopped,msg,TrackEarnings,TrialType,NonNeutralTrialsNum,probeDur,percentacc_total,meanrt,UserAcc,Acc,AdjTrial,AdjTrialInc,feedback_resp.keys,OverallRT,AdjRTmsg,feedback_resp.rt,participant,prac_or_scan,run,date,expName,psychopyVersion,frameRate,
LgPun,1500,0,0,0,0,TimeVersion10.csv,36.76618182600214,None,1500,38.7999506260021,None,None,38.7999506260021,None,1.6400000000000001,1,40.333018435005215,None,1,1,0.2798355510021793,40.333018435005215,None,You did not lose $5.00!,0,4,1,0.36,100.0,0.2798355510021793,[1],0,0,3,None,0.2798355510021793,,,009,Scanner,1,2019_Sep_06_1248,MID,3.1.5,60.01016692357299,
LgPun,2500,0,1,1,1,,42.38289748800162,None,2500,44.41626121900481,None,None,44.41626121900481,None,1.6400000000000001,2,46.9493151630013,None,1,1,0.29352052000467665,46.9493151630013,None,You did not lose $5.00!,0,4,2,0.36,100.0,0.28667803550342796,"[1, 1]",0,0,3,None,0.29352052000467665,,,009,Scanner,1,2019_Sep_06_1248,MID,3.1.5,60.01016692357299,
Triangle,2000,0,2,2,2,,48.9832886150034,None,2000,51.01705715700518,None,None,51.01705715700518,None,1.6400000000000001,3,53.05048588300269,None,1,1,0.3023550520010758,53.05048588300269,None,You did not win or lose anything!,0,3,2,0.36,100.0,0.29190370766931056,"[1, 1]",0,0,3,None,0.3023550520010758,,,009,Scanner,1,2019_Sep_06_1248,MID,3.1.5,60.01016692357299,
SmallPun,2500,0,3,3,3,,55.10066275099962,None,2500,57.134099160000915,None,None,57.134099160000915,None,1.6400000000000001,4,59.66715249600384,None,1,1,0.31660272799490485,59.66715249600384,None,You did not lose $0.20!,0,5,3,0.31,100.0,0.29807846275070915,[],100.0,3,3,None,0.31660272799490485,Adjusting RT...,,009,Scanner,1,2019_Sep_06_1248,MID,3.1.5,60.01016692357299,
LgReward,2000,0,4,4,4,,61.7178990800021,None,2000,63.7515733140026,None,None,63.7515733140026,None,1.69,5,65.80155765300151,None,None,0,,65.80155765300151,None,You did not win $5.00!,0,1,4,0.31,80.0,0.29807846275070915,[0],100.0,3,3,1,0.3050775920005981,,-0.004922407999401912,009,Scanner,1,2019_Sep_06_1248,MID,3.1.5,60.01016692357299,
Triangle,1500,0,5,5,5,,67.83457428800466,None,1500,69.86882779300504,None,None,69.86882779300504,None,1.69,6,71.40226173699921,None,1,1,0.274559401004808,71.40226173699921,None,You did not win or lose anything!,0,3,4,0.31,83.33333333333334,0.29337465040152894,[0],100.0,3,3,None,0.274559401004808,,,009,Scanner,1,2019_Sep_06_1248,MID,3.1.5,60.01016692357299,
SmallPun,1500,0,6,6,6,,73.45154815000569,None,1500,75.48589043300308,None,None,75.48589043300308,None,1.69,7,77.01800945400464,None,1,1,0.26975508999748854,77.01800945400464,None,You did not lose $0.20!,0,5,5,0.31,85.71428571428571,0.2894380570008555,"[0, 1]",100.0,3,3,None,0.26975508999748854,,,009,Scanner,1,2019_Sep_06_1248,MID,3.1.5,60.01016692357299,
Triangle,2500,0,7,7,7,,79.0686291910024,None,2500,81.10285519099853,None,None,81.10285519099853,None,1.69,8,83.63590253000439,None,None,0,,83.63590253000439,None,You did not win or lose anything!,0,3,5,0.31,75.0,0.2894380570008555,"[0, 1]",100.0,3,3,1,0.30147766200621845,,-0.008522337993781548,009,Scanner,1,2019_Sep_06_1248,MID,3.1.5,60.01016692357299,
Triangle,3000,0,8,8,8,,85.68620682600158,None,3000,87.71986601900426,None,None,87.71986601900426,None,1.69,9,90.75320327200461,None,None,0,,90.75320327200461,None,You did not win or lose anything!,0,3,5,0.31,66.66666666666666,0.2894380570008555,"[0, 1]",100.0,3,3,None,0.30147766200621845,,,009,Scanner,1,2019_Sep_06_1248,MID,3.1.5,60.01016692357299,
SmallReward,3500,0,9,9,9,,92.80266746000416,None,3500,94.83698069100501,None,None,94.83698069100501,None,1.69,10,98.3863080470037,None,1,1,0.2564852930008783,98.3863080470037,None,You won $0.20!,0.2,2,6,0.28,70.0,0.28473051928657306,[],83.33333333333333,6,3,None,0.2564852930008783,Adjusting RT...,,009,Scanner,1,2019_Sep_06_1248,MID,3.1.5,60.01016692357299,
SmallReward,2500,0,10,10,10,,100.45314125000004,None,2500,102.48766666700249,None,None,102.48766666700249,None,1.72,11,105.02701544500451,None,1,1,0.25971193599980325,105.02701544500451,None,You won $0.20!,0.4,2,7,0.28,72.72727272727273,0.28160319637572684,[1],83.33333333333333,6,3,None,0.25971193599980325,,,009,Scanner,1,2019_Sep_06_1248,MID,3.1.5,60.01016692357299,
LgReward,1500,0,11,11,11,,107.08642979500291,None,1500,109.12071205500251,None,None,109.12071205500251,None,1.72,12,110.67106069000147,None,None,0,,110.67106069000147,None,You did not win $5.00!,0.4,1,8,0.28,66.66666666666666,0.28160319637572684,"[1, 0]",83.33333333333333,6,3,1,0.2707338409975637,,-0.009266159002436325,009,Scanner,1,2019_Sep_06_1248,MID,3.1.5,60.01016692357299,
Triangle,1500,0,12,12,12,,112.72091028399882,None,1500,114.7552110530014,None,None,114.7552110530014,None,1.72,13,116.28732454500278,None,None,0,,116.28732454500278,None,You did not win or lose anything!,0.4,3,8,0.28,61.53846153846154,0.28160319637572684,"[1, 0]",83.33333333333333,6,3,1,0.273104236004001,,-0.006895763995999005,009,Scanner,1,2019_Sep_06_1248,MID,3.1.5,60.01016692357299,
SmallReward,1500,0,13,13,13,,118.35492301599879,None,1500,120.37862522499927,None,None,120.37862522499927,None,1.72,14,121.92952016900381,None,1,1,0.25333949500054587,121.92952016900381,None,You won $0.20!,0.6000000000000001,2,9,0.26,64.28571428571429,0.2784627851118178,[],66.66666666666666,9,3,None,0.25333949500054587,Adjusting RT...,,009,Scanner,1,2019_Sep_06_1248,MID,3.1.5,60.01016692357299,
SmallReward,4000,0,14,14,14,,123.98850220800523,None,4000,126.01198475000274,None,None,126.01198475000274,None,1.74,15,130.07237759300187,None,None,0,,130.07237759300187,None,You did not win $0.20!,0.6000000000000001,2,10,0.26,60.0,0.2784627851118178,[0],66.66666666666666,9,3,1,0.2723620000013034,,0.012362000001303386,009,Scanner,1,2019_Sep_06_1248,MID,3.1.5,60.01016692357299,
LgReward,1500,0,15,15,15,,132.1309447099993,None,1500,134.162791019,None,None,134.162791019,None,1.74,16,135.71348004099855,None,None,0,,135.71348004099855,None,You did not win $5.00!,0.6000000000000001,1,11,0.26,56.25,0.2784627851118178,"[0, 0]",66.66666666666666,9,3,1,0.27002298499952304,,0.010022984999523032,009,Scanner,1,2019_Sep_06_1248,MID,3.1.5,60.01016692357299,
LgReward,3000,0,16,16,16,,137.77271493200533,None,3000,139.79743615900225,None,None,139.79743615900225,None,1.74,17,142.8808246260014,None,1,1,0.22103648199845338,142.8808246260014,None,You won $5.00!,5.6,1,12,0.28,58.82352941176471,0.2727201548004814,[],49.99999999999999,12,3,None,0.22103648199845338,Adjusting RT...,,009,Scanner,1,2019_Sep_06_1248,MID,3.1.5,60.01016692357299,
SmallReward,1500,0,17,17,17,,144.93195482800365,None,1500,146.9653361180026,None,None,146.9653361180026,None,1.72,18,148.51508000700414,None,None,0,,148.51508000700414,None,You did not win $0.20!,5.6,2,13,0.28,55.55555555555556,0.2727201548004814,[0],49.99999999999999,12,3,1,0.2851496040032362,,0.005149604003236163,009,Scanner,1,2019_Sep_06_1248,MID,3.1.5,60.01016692357299,
LgPun,1500,0,18,18,18,,150.5736339340001,None,1500,152.59938202099875,None,None,152.59938202099875,None,1.72,19,154.13992606900138,None,None,0,,154.13992606900138,None,You lost $5.00!,0.5999999999999996,4,14,0.28,52.63157894736842,0.2727201548004814,"[0, 0]",49.99999999999999,12,3,1,0.27641137599974175,,-0.003588624000258278,009,Scanner,1,2019_Sep_06_1248,MID,3.1.5,60.01016692357299,
SmallReward,2000,0,19,19,19,,156.19925798400072,None,2000,158.23403244200017,None,None,158.23403244200017,None,1.72,20,160.2838522029997,None,1,1,0.218007937000948,160.2838522029997,None,You won $0.20!,0.7999999999999996,2,15,0.32,55.00000000000001,0.26774631681870564,[],33.33333333333333,15,3,None,0.218007937000948,Adjusting RT...,,009,Scanner,1,2019_Sep_06_1248,MID,3.1.5,60.01016692357299,
SmallPun,3000,0,20,20,20,,162.34049114600202,None,3000,164.36694238999917,None,None,164.36694238999917,None,1.68,21,167.4076369750037,None,1,1,0.2551896980003221,167.4076369750037,None,You did not lose $0.20!,0.7999999999999996,5,16,0.32,57.14285714285714,0.26669993191717367,[1],33.33333333333333,15,3,None,0.2551896980003221,,,009,Scanner,1,2019_Sep_06_1248,MID,3.1.5,60.01016692357299,
LgReward,3500,0,21,21,21,,169.4517019039995,None,3500,171.48536761099967,None,None,171.48536761099967,None,1.68,22,175.03531337599998,None,1,1,0.2544721689992002,175.03531337599998,None,You won $5.00!,5.8,1,17,0.32,59.09090909090909,0.26575933476963726,"[1, 1]",33.33333333333333,15,3,None,0.2544721689992002,,,009,Scanner,1,2019_Sep_06_1248,MID,3.1.5,60.01016692357299,
LgPun,4000,0,22,22,22,,177.07498546400166,None,4000,179.10243021100177,None,None,179.10243021100177,None,1.68,23,183.13713913300307,None,1,1,0.23958831900381483,183.13713913300307,None,You did not lose $5.00!,5.8,4,18,0.3,60.86956521739131,0.26388997650064994,[],66.66666666666666,18,3,None,0.23958831900381483,Adjusting RT...,,009,Scanner,1,2019_Sep_06_1248,MID,3.1.5,60.01016692357299,
Triangle,2000,0,23,23,23,,185.17597308000404,None,2000,187.20389194400195,None,None,187.20389194400195,None,1.7,24,189.23706216899882,None,None,0,,189.23706216899882,None,You did not win or lose anything!,5.8,3,18,0.3,58.333333333333336,0.26388997650064994,[],66.66666666666666,18,3,None,0.23958831900381483,,,009,Scanner,1,2019_Sep_06_1248,MID,3.1.5,60.01016692357299,
LgReward,4000,0,24,24,24,,191.287112197002,None,4000,193.32133007200173,None,None,193.32133007200173,None,1.7,25,197.37147650700354,None,1,1,0.24535978300264105,197.37147650700354,None,You won $5.00!,10.8,1,19,0.3,60.0,0.26265463026744934,[1],66.66666666666666,18,3,None,0.24535978300264105,,,009,Scanner,1,2019_Sep_06_1248,MID,3.1.5,60.01016692357299,
LgPun,3000,0,25,25,25,,199.4102869970011,None,3000,201.43846492300509,None,None,201.43846492300509,None,1.7,26,204.47160960000474,None,1,1,0.24523046299873386,204.47160960000474,None,You did not lose $5.00!,10.8,4,20,0.3,61.53846153846154,0.2615656198131546,"[1, 1]",66.66666666666666,18,3,None,0.24523046299873386,,,009,Scanner,1,2019_Sep_06_1248,MID,3.1.5,60.01016692357299,
Triangle,1500,0,26,26,26,,206.51052443400113,None,1500,208.53916181900422,None,None,208.53916181900422,None,1.7,27,210.0731557130057,None,None,0,,210.0731557130057,None,You did not win or lose anything!,10.8,3,20,0.3,59.25925925925925,0.2615656198131546,"[1, 1]",66.66666666666666,18,3,1,0.3057025920032174,,0.005702592003217433,009,Scanner,1,2019_Sep_06_1248,MID,3.1.5,60.01016692357299,
LgPun,1500,0,27,27,27,,212.11087342000246,None,1500,214.1405212630052,None,None,214.1405212630052,None,1.7,28,215.67400022999936,None,None,0,,215.67400022999936,None,You lost $5.00!,5.800000000000001,4,21,0.27,57.14285714285714,0.2615656198131546,[],83.33333333333333,21,3,1,0.28662106000003407,Adjusting RT...,0.01662106000003405,009,Scanner,1,2019_Sep_06_1248,MID,3.1.5,60.01016692357299,
SmallReward,2000,0,28,28,28,,217.72403360700264,None,2000,219.7580026700016,None,None,219.7580026700016,None,1.73,29,221.8080252660002,None,None,0,,221.8080252660002,None,You did not win $0.20!,5.800000000000001,2,22,0.27,55.172413793103445,0.2615656198131546,[0],83.33333333333333,21,3,1,0.37179427600087367,,0.10179427600087365,009,Scanner,1,2019_Sep_06_1248,MID,3.1.5,60.01016692357299,
LgPun,1500,0,29,29,29,,223.8445593400029,None,1500,225.87519723900186,None,None,225.87519723900186,None,1.73,30,227.40853597500245,None,None,0,,227.40853597500245,None,You lost $5.00!,0.8000000000000007,4,23,0.27,53.333333333333336,0.2615656198131546,"[0, 0]",83.33333333333333,21,3,1,0.2949185399952694,,0.024918539995269384,009,Scanner,1,2019_Sep_06_1248,MID,3.1.5,60.01016692357299,
SmallReward,1500,0,30,30,30,,229.4586881819996,None,1500,231.49265701800323,None,None,231.49265701800323,None,1.73,31,233.04230949400517,None,None,0,,233.04230949400517,None,You did not win $0.20!,0.8000000000000007,2,24,0.31,51.61290322580645,0.2615656198131546,[],33.33333333333333,24,3,None,0.2949185399952694,Adjusting RT...,,009,Scanner,1,2019_Sep_06_1248,MID,3.1.5,60.01016692357299,
SmallPun,3500,0,31,31,31,,235.0764534580012,None,3500,237.1103414579993,None,None,237.1103414579993,None,1.69,32,240.643787686,None,1,1,0.2450446649963851,240.643787686,None,You did not lose $0.20!,0.8000000000000007,5,25,0.31,53.125,0.26059379894157997,[1],33.33333333333333,24,3,None,0.2450446649963851,,,009,Scanner,1,2019_Sep_06_1248,MID,3.1.5,60.01016692357299,
Triangle,4000,0,32,32,32,,242.69636643899867,None,4000,244.72804651900515,None,None,244.72804651900515,None,1.69,33,248.76200623800105,None,1,1,0.26082531599968206,248.76200623800105,None,You did not win or lose anything!,0.8000000000000007,3,25,0.31,54.54545454545454,0.2606066610003634,[1],33.33333333333333,24,3,None,0.26082531599968206,,,009,Scanner,1,2019_Sep_06_1248,MID,3.1.5,60.01016692357299,
SmallPun,2000,0,33,33,33,,250.81309239000257,None,2000,252.84535411900288,None,None,252.84535411900288,None,1.69,34,254.87929042800533,None,None,0,,254.87929042800533,None,You lost $0.20!,0.6000000000000008,5,26,0.31,52.94117647058824,0.2606066610003634,"[1, 0]",33.33333333333333,24,3,1,0.3283840970057645,,0.018384097005764488,009,Scanner,1,2019_Sep_06_1248,MID,3.1.5,60.01016692357299,
LgReward,1500,0,34,34,34,,256.94556405500043,None,1500,258.9795429440055,None,None,258.9795429440055,None,1.69,35,260.52912164400186,None,1,1,0.2665982350008562,260.52912164400186,None,You won $5.00!,5.6000000000000005,1,27,0.35,54.285714285714285,0.2609220070003893,[],33.33333333333333,27,3,None,0.2665982350008562,Adjusting RT...,,009,Scanner,1,2019_Sep_06_1248,MID,3.1.5,60.01016692357299,
SmallPun,1500,0,35,35,35,,262.5638373690017,None,1500,264.59659407100116,None,None,264.59659407100116,None,1.65,36,266.13005433500075,None,None,0,,266.13005433500075,None,You lost $0.20!,5.4,5,28,0.35,52.77777777777778,0.2609220070003893,[0],33.33333333333333,27,3,1,0.3433739490006701,,-0.006626050999329891,009,Scanner,1,2019_Sep_06_1248,MID,3.1.5,60.01016692357299,
LgReward,2000,0,36,36,36,,268.18076079500315,None,2000,270.2139828299987,None,None,270.2139828299987,None,1.65,37,272.26417747099913,None,1,1,0.2525478800016572,272.26417747099913,None,You won $5.00!,10.4,1,29,0.35,54.054054054054056,0.26050330065045274,"[0, 1]",33.33333333333333,27,3,None,0.2525478800016572,,,009,Scanner,1,2019_Sep_06_1248,MID,3.1.5,60.01016692357299,
LgReward,1500,0,37,37,37,,274.31495259100484,None,1500,276.3486010990018,None,None,276.3486010990018,None,1.65,38,277.89820530600264,None,1,1,0.2654972039963468,277.89820530600264,None,You won $5.00!,15.4,1,30,0.32999999999999996,55.26315789473685,0.2607411055716858,[],66.66666666666666,30,3,None,0.2654972039963468,Adjusting RT...,,009,Scanner,1,2019_Sep_06_1248,MID,3.1.5,60.01016692357299,
SmallPun,4000,0,38,38,38,,279.93148372699943,None,4000,281.9656156860001,None,None,281.9656156860001,None,1.67,39,285.99924782000016,None,1,1,0.2585829090021434,285.99924782000016,None,You did not lose $0.20!,15.4,5,31,0.32999999999999996,56.41025641025641,0.2606430057276157,[1],66.66666666666666,30,3,None,0.2585829090021434,,,009,Scanner,1,2019_Sep_06_1248,MID,3.1.5,60.01016692357299,
LgPun,2000,0,39,39,39,,288.0319440750027,None,2000,290.0651127780002,None,None,290.0651127780002,None,1.67,40,292.0995355560008,None,1,1,0.25329025000246475,292.0995355560008,None,You did not lose $5.00!,15.4,4,32,0.32999999999999996,57.49999999999999,0.2603233206960874,"[1, 1]",66.66666666666666,30,3,None,0.25329025000246475,,,009,Scanner,1,2019_Sep_06_1248,MID,3.1.5,60.01016692357299,
Triangle,3500,0,40,40,40,,294.1330888240045,None,3500,296.16712534199905,None,None,296.16712534199905,None,1.67,41,299.70000972300477,None,None,0,,299.70000972300477,None,You did not win or lose anything!,15.4,3,32,0.32999999999999996,56.09756097560976,0.2603233206960874,"[1, 1]",66.66666666666666,30,3,1,0.3963269159995252,,0.06632691599952523,009,Scanner,1,2019_Sep_06_1248,MID,3.1.5,60.01016692357299,
SmallReward,1500,0,41,41,41,,301.74954648600396,None,1500,303.78409730899875,None,None,303.78409730899875,None,1.67,42,305.33338778200414,None,1,1,0.2784453959975508,305.33338778200414,None,You won $0.20!,15.6,2,33,0.29999999999999993,57.14285714285714,0.26107840716698166,[],83.33333333333333,33,3,None,0.2784453959975508,Adjusting RT...,,009,Scanner,1,2019_Sep_06_1248,MID,3.1.5,60.01016692357299,
SmallPun,2000,0,42,42,42,,307.38349585499964,None,2000,309.417809726001,None,None,309.417809726001,None,1.7000000000000002,43,311.45025124899985,None,None,0,,311.45025124899985,None,You lost $0.20!,15.4,5,34,0.29999999999999993,55.81395348837209,0.26107840716698166,[0],83.33333333333333,33,3,None,0.2784453959975508,,,009,Scanner,1,2019_Sep_06_1248,MID,3.1.5,60.01016692357299,
SmallReward,3000,0,43,43,43,,313.50073172200064,None,3000,315.5346400760027,None,None,315.5346400760027,None,1.7000000000000002,44,318.5846846850036,None,1,1,0.25103079700056696,318.5846846850036,None,You won $0.20!,15.6,2,35,0.29999999999999993,56.81818181818182,0.2606765027603251,"[0, 1]",83.33333333333333,33,3,None,0.25103079700056696,,,009,Scanner,1,2019_Sep_06_1248,MID,3.1.5,60.01016692357299,
SmallPun,1500,0,44,44,44,,320.61745992200304,None,1500,322.6513621750055,None,None,322.6513621750055,None,1.7000000000000002,45,324.18531149499904,None,None,0,,324.18531149499904,None,You lost $0.20!,15.4,5,36,0.2799999999999999,55.55555555555556,0.2606765027603251,[],66.66666666666666,36,3,None,0.25103079700056696,Adjusting RT...,,009,Scanner,1,2019_Sep_06_1248,MID,3.1.5,60.01016692357299,
LgPun,3500,0,45,45,45,,326.21845551200386,None,3500,328.2517950340043,None,None,328.2517950340043,None,1.7200000000000002,46,331.7846905430051,None,None,0,,331.7846905430051,None,You lost $5.00!,10.4,4,37,0.2799999999999999,54.347826086956516,0.2606765027603251,[0],66.66666666666666,36,3,None,0.25103079700056696,,,009,Scanner,1,2019_Sep_06_1248,MID,3.1.5,60.01016692357299,
Triangle,1500,0,46,46,46,,333.81925513400347,None,1500,335.85211970800447,None,None,335.85211970800447,None,1.7200000000000002,47,337.38542503300414,None,None,0,,337.38542503300414,None,You did not win or lose anything!,10.4,3,37,0.2799999999999999,53.191489361702125,0.2606765027603251,[0],66.66666666666666,36,3,1,0.391793445998046,,0.11179344599804608,009,Scanner,1,2019_Sep_06_1248,MID,3.1.5,60.01016692357299,
LgReward,2500,0,47,47,47,,339.4524269300018,None,2500,341.4867890739988,None,None,341.4867890739988,None,1.7200000000000002,48,344.03623750300176,None,None,0,,344.03623750300176,None,You did not win $5.00!,10.4,1,38,0.2799999999999999,52.083333333333336,0.2606765027603251,"[0, 0]",66.66666666666666,36,3,1,0.2825356389960506,,0.002535638996050693,009,Scanner,1,2019_Sep_06_1248,MID,3.1.5,60.01016692357299,
LgPun,2000,0,48,48,48,,346.08604048300185,None,2000,348.12043365000136,None,None,348.12043365000136,None,1.7200000000000002,49,350.15279134199955,None,1,1,0.23903508100192994,350.15279134199955,None,You did not lose $5.00!,10.4,4,39,0.3199999999999999,53.06122448979592,0.2598441403850022,[],33.33333333333333,39,3,None,0.23903508100192994,Adjusting RT...,,009,Scanner,1,2019_Sep_06_1248,MID,3.1.5,60.01016692357299,
SmallPun,1500,0,49,49,49,,352.20338852100394,None,1500,354.23723813000106,None,None,354.23723813000106,None,1.6800000000000002,50,355.76998748600454,None,None,0,,355.76998748600454,None,You lost $0.20!,10.200000000000001,5,40,0.3199999999999999,52.0,0.2598441403850022,[0],33.33333333333333,39,3,1,0.35623887299909246,,0.036238872999092564,009,Scanner,1,2019_Sep_06_1248,MID,3.1.5,60.01016692357299,
,,,,,,,,,,,,,,,,,,,,,,,,,,,,,,,,,,,,,,,009,Scanner,1,2019_Sep_06_1248,MID,3.1.5,60.01016692357299,
