Condition,FixationDur,trials.thisRepN,trials.thisTrialN,trials.thisN,trials.thisIndex,TrialOrder,cueImage.started,cueImage.stopped,FixationDur,fixation.started,fixation.stopped,fixationResp.keys,fixationResp.started,fixationResp.stopped,feedbackDur,Trial counter,Target.started,Target.stopped,probeResp.keys,probeResp.corr,probeResp.rt,probeResp.started,probeResp.stopped,msg,TrackEarnings,TrialType,NonNeutralTrialsNum,probeDur,percentacc_total,meanrt,UserAcc,Acc,AdjTrial,AdjTrialInc,feedback_resp.keys,OverallRT,AdjRTmsg,participant,prac_or_scan,run,date,expName,psychopyVersion,frameRate,
LgReward,1500,0,0,0,0,TimeVersion3.csv,25.50097771495348,None,1500,27.518476487952285,None,None,27.518476487952285,None,1.53,1,29.067369224969298,None,1,1,0.33901368401711807,29.067369224969298,None,You won $5.00!,5,1,1,0.47,100.0,0.33901368401711807,[1],0,0,3,None,0.33901368401711807,,013,Scanner,1,2019_Sep_01_1510,MID,3.1.5,60.13075250990419,
Triangle,2500,0,1,1,1,,31.119513382960577,None,2500,33.151773477962706,None,None,33.151773477962706,None,1.53,2,35.68489591695834,None,None,0,,35.68489591695834,None,You did not win or lose anything!,5,3,1,0.47,50.0,0.33901368401711807,[1],0,0,3,None,0.33901368401711807,,013,Scanner,1,2019_Sep_01_1510,MID,3.1.5,60.13075250990419,
SmallPun,1500,0,2,2,2,,37.736837226955686,None,1500,39.769864754984155,None,None,39.769864754984155,None,1.53,3,41.3027064659982,None,None,0,,41.3027064659982,None,You lost $0.20!,4.8,5,2,0.47,33.33333333333333,0.33901368401711807,"[1, 0]",0,0,3,None,0.33901368401711807,,013,Scanner,1,2019_Sep_01_1510,MID,3.1.5,60.13075250990419,
LgPun,2500,0,3,3,3,,43.3536168699502,None,2500,45.386744375980925,None,None,45.386744375980925,None,1.53,4,47.92036446597194,None,None,0,,47.92036446597194,None,You lost $5.00!,-0.20000000000000018,4,3,0.5,25.0,0.33901368401711807,[],33.33333333333333,3,3,None,0.33901368401711807,Adjusting RT...,013,Scanner,1,2019_Sep_01_1510,MID,3.1.5,60.13075250990419,
Triangle,1500,0,4,4,4,,49.95447077596327,None,1500,51.987970313988626,None,None,51.987970313988626,None,1.5,5,53.520339922979474,None,None,0,,53.520339922979474,None,You did not win or lose anything!,-0.20000000000000018,3,3,0.5,20.0,0.33901368401711807,[],33.33333333333333,3,3,None,0.33901368401711807,,013,Scanner,1,2019_Sep_01_1510,MID,3.1.5,60.13075250990419,
SmallReward,2000,0,5,5,5,,55.57098157698056,None,2000,57.6054093039711,None,None,57.6054093039711,None,1.5,6,59.65482572995825,None,1,1,0.35142069100402296,59.65482572995825,None,You won $0.20!,-1.6653345369377348e-16,2,4,0.5,33.33333333333333,0.3452171875105705,[1],33.33333333333333,3,3,None,0.35142069100402296,,013,Scanner,1,2019_Sep_01_1510,MID,3.1.5,60.13075250990419,
SmallPun,3500,0,6,6,6,,61.68842056795256,None,3500,63.72293702996103,None,None,63.72293702996103,None,1.5,7,67.25577966700075,None,None,0,,67.25577966700075,None,You lost $0.20!,-0.20000000000000018,5,5,0.5,28.57142857142857,0.3452171875105705,"[1, 0]",33.33333333333333,3,3,None,0.35142069100402296,,013,Scanner,1,2019_Sep_01_1510,MID,3.1.5,60.13075250990419,
Triangle,1500,0,7,7,7,,69.2893058769987,None,1500,71.32323185395217,None,None,71.32323185395217,None,1.5,8,72.85540303698508,None,None,0,,72.85540303698508,None,You did not win or lose anything!,-0.20000000000000018,3,5,0.5,25.0,0.3452171875105705,"[1, 0]",33.33333333333333,3,3,None,0.35142069100402296,,013,Scanner,1,2019_Sep_01_1510,MID,3.1.5,60.13075250990419,
SmallReward,1500,0,8,8,8,,74.90603742795065,None,1500,76.9403747409815,None,None,76.9403747409815,None,1.5,9,78.48889088298893,None,1,1,0.29848469397984445,78.48889088298893,None,You won $0.20!,-1.6653345369377348e-16,2,6,0.5,33.33333333333333,0.32963968966699514,[],49.99999999999999,6,3,None,0.29848469397984445,Adjusting RT...,013,Scanner,1,2019_Sep_01_1510,MID,3.1.5,60.13075250990419,
LgReward,2000,0,9,9,9,,80.53975751699181,None,2000,82.57301075197756,None,None,82.57301075197756,None,1.5,10,84.62370090396143,None,1,1,0.35155986296013,84.62370090396143,None,You won $5.00!,5.0,1,7,0.5,40.0,0.33511973299027886,[1],49.99999999999999,6,3,None,0.35155986296013,,013,Scanner,1,2019_Sep_01_1510,MID,3.1.5,60.13075250990419,
Triangle,2000,0,10,10,10,,86.65704245195957,None,2000,88.69067343295319,None,None,88.69067343295319,None,1.5,11,90.72450425097486,None,None,0,,90.72450425097486,None,You did not win or lose anything!,5.0,3,7,0.5,36.36363636363637,0.33511973299027886,[1],49.99999999999999,6,3,None,0.35155986296013,,013,Scanner,1,2019_Sep_01_1510,MID,3.1.5,60.13075250990419,
SmallReward,1500,0,11,11,11,,92.77408645296237,None,1500,94.80806637695059,None,None,94.80806637695059,None,1.5,12,96.35786192299565,None,1,1,0.3484726110473275,96.35786192299565,None,You won $0.20!,5.2,2,8,0.5,41.66666666666667,0.33779030860168857,"[1, 1]",49.99999999999999,6,3,None,0.3484726110473275,,013,Scanner,1,2019_Sep_01_1510,MID,3.1.5,60.13075250990419,
SmallPun,4000,0,12,12,12,,98.3912393169594,None,4000,100.42421321099391,None,None,100.42421321099391,None,1.5,13,104.4584914839943,None,None,0,,104.4584914839943,None,You lost $0.20!,5.0,5,9,0.48,38.46153846153847,0.33779030860168857,[],66.66666666666666,9,3,None,0.3484726110473275,Adjusting RT...,013,Scanner,1,2019_Sep_01_1510,MID,3.1.5,60.13075250990419,
Triangle,1500,0,13,13,13,,106.49165519699454,None,1500,108.52562541997759,None,None,108.52562541997759,None,1.52,14,110.05856161995325,None,None,0,,110.05856161995325,None,You did not win or lose anything!,5.0,3,9,0.48,35.714285714285715,0.33779030860168857,[],66.66666666666666,9,3,None,0.3484726110473275,,013,Scanner,1,2019_Sep_01_1510,MID,3.1.5,60.13075250990419,
LgPun,1500,0,14,14,14,,112.10855733999051,None,1500,114.14296430698596,None,None,114.14296430698596,None,1.52,15,115.67570839996915,None,None,0,,115.67570839996915,None,You lost $5.00!,0.0,4,10,0.48,33.33333333333333,0.33779030860168857,[0],66.66666666666666,9,3,None,0.3484726110473275,,013,Scanner,1,2019_Sep_01_1510,MID,3.1.5,60.13075250990419,
SmallReward,3500,0,15,15,15,,117.72571943094954,None,3500,119.75931290595327,None,None,119.75931290595327,None,1.52,16,123.30909275595332,None,1,1,0.28729111596476287,123.30909275595332,None,You won $0.20!,0.2,2,11,0.48,37.5,0.3293737764955343,"[0, 1]",66.66666666666666,9,3,None,0.28729111596476287,,013,Scanner,1,2019_Sep_01_1510,MID,3.1.5,60.13075250990419,
LgPun,3000,0,16,16,16,,125.36030478699831,None,3000,127.39311558997724,None,None,127.39311558997724,None,1.52,17,130.42632538697217,None,None,0,,130.42632538697217,None,You lost $5.00!,-4.8,4,12,0.5,35.294117647058826,0.3293737764955343,[],49.99999999999999,12,3,None,0.28729111596476287,Adjusting RT...,013,Scanner,1,2019_Sep_01_1510,MID,3.1.5,60.13075250990419,
Triangle,1500,0,17,17,17,,132.4764716309728,None,1500,134.51084135798737,None,None,134.51084135798737,None,1.5,18,136.04370820597978,None,1,1,0.41460520500550047,136.04370820597978,None,You did not win or lose anything!,-4.8,3,12,0.5,38.88888888888889,0.3415496948541009,[],49.99999999999999,12,3,None,0.41460520500550047,,013,Scanner,1,2019_Sep_01_1510,MID,3.1.5,60.13075250990419,
LgReward,3500,0,18,18,18,,138.07688807300292,None,3500,140.1106302329572,None,None,140.1106302329572,None,1.5,19,143.65995767200366,None,1,1,0.4382838390301913,143.65995767200366,None,You won $5.00!,0.20000000000000018,1,13,0.5,42.10526315789473,0.3536414628761122,[1],49.99999999999999,12,3,None,0.4382838390301913,,013,Scanner,1,2019_Sep_01_1510,MID,3.1.5,60.13075250990419,
LgPun,1500,0,19,19,19,,145.69379628100432,None,1500,147.7281269969535,None,None,147.7281269969535,None,1.5,20,149.26081739395158,None,None,0,,149.26081739395158,None,You lost $5.00!,-4.8,4,14,0.5,40.0,0.3536414628761122,"[1, 0]",49.99999999999999,12,3,None,0.4382838390301913,,013,Scanner,1,2019_Sep_01_1510,MID,3.1.5,60.13075250990419,
SmallReward,1500,0,20,20,20,,151.3109060979914,None,1500,153.3445599139668,None,None,153.3445599139668,None,1.5,21,154.89451570500387,None,1,1,0.4248776090098545,154.89451570500387,None,You won $0.20!,-4.6,2,15,0.5,42.857142857142854,0.3615565902243058,[],49.99999999999999,15,3,None,0.4248776090098545,Adjusting RT...,013,Scanner,1,2019_Sep_01_1510,MID,3.1.5,60.13075250990419,
SmallReward,2000,0,21,21,21,,156.94508186000166,None,2000,158.96792640298372,None,None,158.96792640298372,None,1.5,22,161.0301456739544,None,1,1,0.2800948860240169,161.0301456739544,None,You won $0.20!,-4.3999999999999995,2,16,0.5,45.45454545454545,0.3534104198042769,[1],49.99999999999999,15,3,None,0.2800948860240169,,013,Scanner,1,2019_Sep_01_1510,MID,3.1.5,60.13075250990419,
LgPun,2000,0,22,22,22,,163.06161526596406,None,2000,165.08528875699267,None,None,165.08528875699267,None,1.5,23,167.12830118695274,None,None,0,,167.12830118695274,None,You lost $5.00!,-9.399999999999999,4,17,0.5,43.47826086956522,0.3534104198042769,"[1, 0]",49.99999999999999,15,3,None,0.2800948860240169,,013,Scanner,1,2019_Sep_01_1510,MID,3.1.5,60.13075250990419,
SmallPun,1500,0,23,23,23,,169.16246204898925,None,1500,171.19627749099163,None,None,171.19627749099163,None,1.5,24,172.72877803095616,None,None,0,,172.72877803095616,None,You lost $0.20!,-9.599999999999998,5,18,0.5,41.66666666666667,0.3534104198042769,[],49.99999999999999,18,3,None,0.2800948860240169,Adjusting RT...,013,Scanner,1,2019_Sep_01_1510,MID,3.1.5,60.13075250990419,
LgReward,4000,0,24,24,24,,174.7714739399962,None,4000,176.80446349299746,None,None,176.80446349299746,None,1.5,25,180.8558904179954,None,1,1,0.3015135769965127,180.8558904179954,None,You won $5.00!,-4.599999999999998,1,19,0.5,44.0,0.34869252500357106,[1],49.99999999999999,18,3,None,0.3015135769965127,,013,Scanner,1,2019_Sep_01_1510,MID,3.1.5,60.13075250990419,
SmallReward,2500,0,25,25,25,,182.9135178499855,None,2500,184.93887175899,None,None,184.93887175899,None,1.5,26,187.48821297800168,None,1,1,0.2962159620365128,187.48821297800168,None,You won $0.20!,-4.399999999999998,2,20,0.5,46.15384615384615,0.3443194780896495,"[1, 1]",49.99999999999999,18,3,None,0.2962159620365128,,013,Scanner,1,2019_Sep_01_1510,MID,3.1.5,60.13075250990419,
Triangle,4000,0,26,26,26,,189.5307649569586,None,4000,191.55660456500482,None,None,191.55660456500482,None,1.5,27,195.59766194596887,None,1,1,0.4105974400299601,195.59766194596887,None,You did not win or lose anything!,-4.399999999999998,3,20,0.5,48.148148148148145,0.3494177828542888,"[1, 1]",49.99999999999999,18,3,None,0.4105974400299601,,013,Scanner,1,2019_Sep_01_1510,MID,3.1.5,60.13075250990419,
SmallPun,2000,0,27,27,27,,197.63053698895965,None,2000,199.65663519699592,None,None,199.65663519699592,None,1.5,28,201.69785851897905,None,None,0,,201.69785851897905,None,You lost $0.20!,-4.599999999999998,5,21,0.5,46.42857142857143,0.3494177828542888,[],49.99999999999999,21,3,None,0.4105974400299601,Adjusting RT...,013,Scanner,1,2019_Sep_01_1510,MID,3.1.5,60.13075250990419,
SmallReward,3000,0,28,28,28,,203.74124374199891,None,3000,205.77490237198072,None,None,205.77490237198072,None,1.5,29,208.8241270359722,None,1,1,0.2911304770386778,208.8241270359722,None,You won $0.20!,-4.399999999999998,2,22,0.5,48.275862068965516,0.3452544038674595,[1],49.99999999999999,21,3,None,0.2911304770386778,,013,Scanner,1,2019_Sep_01_1510,MID,3.1.5,60.13075250990419,
LgReward,1500,0,29,29,29,,210.8767209269572,None,1500,212.90826047596056,None,None,212.90826047596056,None,1.5,30,214.45983950799564,None,1,1,0.3155593000119552,214.45983950799564,None,You won $5.00!,0.6000000000000023,1,23,0.5,50.0,0.3432747302770925,"[1, 1]",49.99999999999999,21,3,None,0.3155593000119552,,013,Scanner,1,2019_Sep_01_1510,MID,3.1.5,60.13075250990419,
SmallPun,2000,0,30,30,30,,216.49853452999378,None,2000,218.5262563029537,None,None,218.5262563029537,None,1.5,31,220.56042735796655,None,None,0,,220.56042735796655,None,You lost $0.20!,0.4000000000000023,5,24,0.48,48.38709677419355,0.3432747302770925,[],66.66666666666666,24,3,None,0.3155593000119552,Adjusting RT...,013,Scanner,1,2019_Sep_01_1510,MID,3.1.5,60.13075250990419,
LgPun,2000,0,31,31,31,,222.59928485599812,None,2000,224.6272043879726,None,None,224.6272043879726,None,1.52,32,226.66051660798257,None,None,0,,226.66051660798257,None,You lost $5.00!,-4.599999999999998,4,25,0.48,46.875,0.3432747302770925,[0],66.66666666666666,24,3,None,0.3155593000119552,,013,Scanner,1,2019_Sep_01_1510,MID,3.1.5,60.13075250990419,
LgReward,3000,0,32,32,32,,228.71030098898336,None,3000,230.74355159100378,None,None,230.74355159100378,None,1.52,33,233.80030001298292,None,1,1,0.2830082370201126,233.80030001298292,None,You won $5.00!,0.40000000000000213,1,26,0.48,48.484848484848484,0.33950807444853126,"[0, 1]",66.66666666666666,24,3,None,0.2830082370201126,,013,Scanner,1,2019_Sep_01_1510,MID,3.1.5,60.13075250990419,
Triangle,3500,0,33,33,33,,235.84951377398102,None,3500,237.87875938694924,None,None,237.87875938694924,None,1.52,34,241.4119660469587,None,None,0,,241.4119660469587,None,You did not win or lose anything!,0.40000000000000213,3,26,0.48,47.05882352941176,0.33950807444853126,"[0, 1]",66.66666666666666,24,3,None,0.2830082370201126,,013,Scanner,1,2019_Sep_01_1510,MID,3.1.5,60.13075250990419,
Triangle,3000,0,34,34,34,,243.46720635000383,None,3000,245.49608368898043,None,None,245.49608368898043,None,1.52,35,248.5292679409613,None,None,0,,248.5292679409613,None,You did not win or lose anything!,0.40000000000000213,3,26,0.48,45.714285714285715,0.33950807444853126,"[0, 1]",66.66666666666666,24,3,None,0.2830082370201126,,013,Scanner,1,2019_Sep_01_1510,MID,3.1.5,60.13075250990419,
LgPun,1500,0,35,35,35,,250.56745721795596,None,1500,252.59690862399293,None,None,252.59690862399293,None,1.52,36,254.13049588899594,None,None,0,,254.13049588899594,None,You lost $5.00!,-4.599999999999998,4,27,0.5,44.44444444444444,0.33950807444853126,[],49.99999999999999,27,3,None,0.2830082370201126,Adjusting RT...,013,Scanner,1,2019_Sep_01_1510,MID,3.1.5,60.13075250990419,
LgReward,1500,0,36,36,36,,256.180842613976,None,1500,258.2143845419632,None,None,258.2143845419632,None,1.5,37,259.76433844998246,None,1,1,0.34792308101896197,259.76433844998246,None,You won $5.00!,0.40000000000000213,1,28,0.5,45.94594594594595,0.3400030748350272,[1],49.99999999999999,27,3,None,0.34792308101896197,,013,Scanner,1,2019_Sep_01_1510,MID,3.1.5,60.13075250990419,
LgPun,3500,0,37,37,37,,261.79782118694857,None,3500,263.8327057319693,None,None,263.8327057319693,None,1.5,38,267.36584097798914,None,None,0,,267.36584097798914,None,You lost $5.00!,-4.599999999999998,4,29,0.5,44.73684210526316,0.3400030748350272,"[1, 0]",49.99999999999999,27,3,None,0.34792308101896197,,013,Scanner,1,2019_Sep_01_1510,MID,3.1.5,60.13075250990419,
LgPun,1500,0,38,38,38,,269.3985315680038,None,1500,271.4334253940033,None,None,271.4334253940033,None,1.5,39,272.96542532899184,None,None,0,,272.96542532899184,None,You lost $5.00!,-9.599999999999998,4,30,0.5,43.58974358974359,0.3400030748350272,[],33.33333333333333,30,3,None,0.34792308101896197,Adjusting RT...,013,Scanner,1,2019_Sep_01_1510,MID,3.1.5,60.13075250990419,
SmallPun,2500,0,39,39,39,,275.0022794039687,None,2500,277.0335143939592,None,None,277.0335143939592,None,1.5,40,279.5664496329846,None,None,0,,279.5664496329846,None,You lost $0.20!,-9.799999999999997,5,31,0.5,42.5,0.3400030748350272,[0],33.33333333333333,30,3,None,0.34792308101896197,,013,Scanner,1,2019_Sep_01_1510,MID,3.1.5,60.13075250990419,
LgReward,1500,0,40,40,40,,281.6177987830015,None,1500,283.6510175669682,None,None,283.6510175669682,None,1.5,41,285.20124939695233,None,1,1,0.40400422597303987,285.20124939695233,None,You won $5.00!,-4.799999999999997,1,32,0.5,43.90243902439025,0.34355869434269454,"[0, 1]",33.33333333333333,30,3,None,0.40400422597303987,,013,Scanner,1,2019_Sep_01_1510,MID,3.1.5,60.13075250990419,
SmallPun,1500,0,41,41,41,,287.2365896209958,None,1500,289.26887811894994,None,None,289.26887811894994,None,1.5,42,290.8022212649812,None,None,0,,290.8022212649812,None,You lost $0.20!,-4.999999999999997,5,33,0.5,42.857142857142854,0.34355869434269454,[],33.33333333333333,33,3,None,0.40400422597303987,Adjusting RT...,013,Scanner,1,2019_Sep_01_1510,MID,3.1.5,60.13075250990419,
Triangle,2000,0,42,42,42,,292.8369260429754,None,2000,294.86903761397116,None,None,294.86903761397116,None,1.5,43,296.90224141499493,None,None,0,,296.90224141499493,None,You did not win or lose anything!,-4.999999999999997,3,33,0.5,41.86046511627907,0.34355869434269454,[],33.33333333333333,33,3,None,0.40400422597303987,,013,Scanner,1,2019_Sep_01_1510,MID,3.1.5,60.13075250990419,
LgPun,4000,0,43,43,43,,298.93683353997767,None,4000,300.96988273999887,None,None,300.96988273999887,None,1.5,44,305.00343052396784,None,None,0,,305.00343052396784,None,You lost $5.00!,-9.999999999999996,4,34,0.5,40.909090909090914,0.34355869434269454,[0],33.33333333333333,33,3,None,0.40400422597303987,,013,Scanner,1,2019_Sep_01_1510,MID,3.1.5,60.13075250990419,
SmallReward,1500,0,44,44,44,,307.0540814389824,None,1500,309.0881301649497,None,None,309.0881301649497,None,1.5,45,310.6378492009826,None,1,1,0.3895209929905832,310.6378492009826,None,You won $0.20!,-9.799999999999997,2,35,0.5,42.22222222222222,0.34597776269258346,"[0, 1]",33.33333333333333,33,3,None,0.3895209929905832,,013,Scanner,1,2019_Sep_01_1510,MID,3.1.5,60.13075250990419,
LgReward,2500,0,45,45,45,,312.6881750290049,None,2500,314.7225119689829,None,None,314.7225119689829,None,1.5,46,317.2721500219777,None,1,1,0.28409789002034813,317.2721500219777,None,You won $5.00!,-4.799999999999997,1,36,0.5,43.47826086956522,0.34288376905897167,[],49.99999999999999,36,3,None,0.28409789002034813,Adjusting RT...,013,Scanner,1,2019_Sep_01_1510,MID,3.1.5,60.13075250990419,
SmallPun,3000,0,46,46,46,,319.3054624479846,None,3000,321.3393063090043,None,None,321.3393063090043,None,1.5,47,324.37215141794877,None,None,0,,324.37215141794877,None,You lost $0.20!,-4.999999999999997,5,37,0.5,42.5531914893617,0.34288376905897167,[0],49.99999999999999,36,3,None,0.28409789002034813,,013,Scanner,1,2019_Sep_01_1510,MID,3.1.5,60.13075250990419,
LgReward,2000,0,47,47,47,,326.4226270559593,None,2000,328.4558261309867,None,None,328.4558261309867,None,1.5,48,330.5055635289755,None,1,1,0.3278212639852427,330.5055635289755,None,You won $5.00!,2.6645352591003757e-15,1,38,0.5,43.75,0.34216650691260364,"[0, 1]",49.99999999999999,36,3,None,0.3278212639852427,,013,Scanner,1,2019_Sep_01_1510,MID,3.1.5,60.13075250990419,
SmallReward,4000,0,48,48,48,,332.55620455899043,None,4000,334.59048159298254,None,None,334.59048159298254,None,1.5,49,338.6390797549975,None,1,1,0.2733140760101378,338.6390797549975,None,You won $0.20!,0.20000000000000268,2,39,0.48,44.89795918367347,0.33903685096249153,[],66.66666666666666,39,3,None,0.2733140760101378,Adjusting RT...,013,Scanner,1,2019_Sep_01_1510,MID,3.1.5,60.13075250990419,
SmallPun,1500,0,49,49,49,,340.6734359629918,None,1500,342.70771423797123,None,None,342.70771423797123,None,1.52,50,344.2400526679703,None,None,0,,344.2400526679703,None,You lost $0.20!,2.6645352591003757e-15,5,40,0.48,44.0,0.33903685096249153,[0],66.66666666666666,39,3,None,0.2733140760101378,,013,Scanner,1,2019_Sep_01_1510,MID,3.1.5,60.13075250990419,
,,,,,,,,,,,,,,,,,,,,,,,,,,,,,,,,,,,,,,013,Scanner,1,2019_Sep_01_1510,MID,3.1.5,60.13075250990419,
