Condition,FixationDur,trials.thisRepN,trials.thisTrialN,trials.thisN,trials.thisIndex,TrialOrder,cueImage.started,cueImage.stopped,FixationDur,fixation.started,fixation.stopped,fixationResp.keys,fixationResp.started,fixationResp.stopped,feedbackDur,Trial counter,Target.started,Target.stopped,probeResp.keys,probeResp.corr,probeResp.rt,probeResp.started,probeResp.stopped,msg,TrackEarnings,TrialType,NonNeutralTrialsNum,probeDur,percentacc_total,meanrt,UserAcc,Acc,AdjTrial,AdjTrialInc,feedback_resp.keys,OverallRT,AdjRTmsg,feedback_resp.rt,fixationResp.rt,participant,prac_or_scan,run,date,expName,psychopyVersion,frameRate,
SmallReward,4000,0,0,0,0,TimeVersion15.csv,30.409267855982762,None,4000,32.41080343100475,None,None,32.41080343100475,None,1.62,1,36.46277873200597,None,1,1,0.34833868499845266,36.46277873200597,None,You won $0.20!,0.2,2,1,0.37999999999999995,100.0,0.34833868499845266,[1],0,0,3,None,0.34833868499845266,,,,016,Scanner,1,2019_Sep_03_0942,MID,3.1.5,59.93815053074408,
SmallPun,3500,0,1,1,1,,38.511592102993745,None,3500,40.54472268902464,None,None,40.54472268902464,None,1.62,2,44.078134098032024,None,1,1,0.3340969970449805,44.078134098032024,None,You did not lose $0.20!,0.2,5,2,0.37999999999999995,100.0,0.3412178410217166,"[1, 1]",0,0,3,None,0.3340969970449805,,,,016,Scanner,1,2019_Sep_03_0942,MID,3.1.5,59.93815053074408,
Triangle,2500,0,2,2,2,,46.12933589401655,None,2500,48.162732727010734,None,None,48.162732727010734,None,1.62,3,50.69564262003405,None,1,1,0.3315517129958607,50.69564262003405,None,You did not win or lose anything!,0.2,3,2,0.37999999999999995,100.0,0.3379957983464313,"[1, 1]",0,0,3,None,0.3315517129958607,,,,016,Scanner,1,2019_Sep_03_0942,MID,3.1.5,59.93815053074408,
SmallReward,2000,0,3,3,3,,52.762055971019436,None,2000,54.79655649402412,None,None,54.79655649402412,None,1.62,4,56.84679918398615,None,None,0,,56.84679918398615,None,You did not win $0.20!,0.2,2,3,0.35999999999999993,75.0,0.3379957983464313,[],66.66666666666666,3,3,None,0.3315517129958607,Adjusting RT...,,,016,Scanner,1,2019_Sep_03_0942,MID,3.1.5,59.93815053074408,
SmallPun,4000,0,4,4,4,,58.88055036799051,None,4000,60.914567706990056,None,None,60.914567706990056,None,1.6400000000000001,5,64.94706387398764,None,1,1,0.2941399569972418,64.94706387398764,None,You did not lose $0.20!,0.2,5,4,0.35999999999999993,80.0,0.32703183800913393,[1],66.66666666666666,3,3,None,0.2941399569972418,,,,016,Scanner,1,2019_Sep_03_0942,MID,3.1.5,59.93815053074408,
LgPun,2000,0,5,5,5,,66.99774601199897,None,2000,69.03110916598234,None,None,69.03110916598234,None,1.6400000000000001,6,71.0648463970283,None,1,1,0.30236118100583553,71.0648463970283,None,You did not lose $5.00!,0.2,4,5,0.35999999999999993,83.33333333333334,0.32209770660847425,"[1, 1]",66.66666666666666,3,3,None,0.30236118100583553,,,,016,Scanner,1,2019_Sep_03_0942,MID,3.1.5,59.93815053074408,
SmallPun,1500,0,6,6,6,,73.11466201598523,None,1500,75.14928533002967,None,None,75.14928533002967,None,1.6400000000000001,7,76.68192456499673,None,None,0,,76.68192456499673,None,You lost $0.20!,0.0,5,6,0.3399999999999999,71.42857142857143,0.32209770660847425,[],66.66666666666666,6,3,1,0.3573675320111214,Adjusting RT...,0.01736753201112151,,016,Scanner,1,2019_Sep_03_0942,MID,3.1.5,59.93815053074408,
SmallReward,1500,0,7,7,7,,78.74865317402873,None,1500,80.78298302798066,None,None,80.78298302798066,None,1.6600000000000001,8,82.33184565801639,None,None,0,,82.33184565801639,None,You did not win $0.20!,0.0,2,7,0.3399999999999999,62.5,0.32209770660847425,[0],66.66666666666666,6,3,1,0.3302618519845418,,-0.009738148015458137,,016,Scanner,1,2019_Sep_03_0942,MID,3.1.5,59.93815053074408,
Triangle,2000,0,8,8,8,,84.3655199680361,None,2000,86.39981606701622,None,None,86.39981606701622,None,1.6600000000000001,9,88.43184125702828,None,1,1,0.28036706696730107,88.43184125702828,None,You did not win or lose anything!,0.0,3,7,0.3399999999999999,66.66666666666666,0.31514260000161204,[0],66.66666666666666,6,3,None,0.28036706696730107,,,,016,Scanner,1,2019_Sep_03_0942,MID,3.1.5,59.93815053074408,
SmallReward,1500,0,9,9,9,,90.49985253898194,None,1500,92.53344649303472,None,None,92.53344649303472,None,1.6600000000000001,10,94.08304885303369,None,None,0,,94.08304885303369,None,You did not win $0.20!,0.0,2,8,0.3399999999999999,60.0,0.31514260000161204,"[0, 0]",66.66666666666666,6,3,1,1.1200229100394061,,0.7800229100394063,,016,Scanner,1,2019_Sep_03_0942,MID,3.1.5,59.93815053074408,
Triangle,1500,0,10,10,10,,96.11583435401553,None,1500,98.14938857103698,None,None,98.14938857103698,None,1.6600000000000001,11,99.68318331398768,None,1,1,0.25403026200365275,99.68318331398768,None,You did not win or lose anything!,0.0,3,8,0.3399999999999999,63.63636363636363,0.3064122660019036,"[0, 0]",66.66666666666666,6,3,None,0.25403026200365275,,,,016,Scanner,1,2019_Sep_03_0942,MID,3.1.5,59.93815053074408,
SmallReward,3500,0,11,11,11,,101.73315481102327,None,3500,103.76673120702617,None,None,103.76673120702617,None,1.6600000000000001,12,107.31723932898603,None,None,0,,107.31723932898603,None,You did not win $0.20!,0.0,2,9,0.3799999999999999,58.333333333333336,0.3064122660019036,[],33.33333333333333,9,3,1,0.40058972901431833,Adjusting RT...,0.020589729014318436,,016,Scanner,1,2019_Sep_03_0942,MID,3.1.5,59.93815053074408,
LgPun,3000,0,12,12,12,,109.35042411403265,None,3000,111.38491409400012,None,None,111.38491409400012,None,1.62,13,114.41816818900406,None,1,1,0.2990008149645291,114.41816818900406,None,You did not lose $5.00!,0.0,4,10,0.3799999999999999,61.53846153846154,0.3054858346222318,[1],33.33333333333333,9,3,None,0.2990008149645291,,,,016,Scanner,1,2019_Sep_03_0942,MID,3.1.5,59.93815053074408,
LgReward,1500,0,13,13,13,,116.48435252200579,None,1500,118.51809062098619,None,None,118.51809062098619,None,1.62,14,120.06810159300221,None,1,1,0.28106489300262183,120.06810159300221,None,You won $5.00!,5.0,1,11,0.3799999999999999,64.28571428571429,0.30277239666449735,"[1, 1]",33.33333333333333,9,3,None,0.28106489300262183,,,,016,Scanner,1,2019_Sep_03_0942,MID,3.1.5,59.93815053074408,
SmallPun,2000,0,14,14,14,,122.10160574398469,None,2000,124.13572852301877,None,None,124.13572852301877,None,1.62,15,126.16823578398908,None,1,1,0.29597523802658543,126.16823578398908,None,You did not lose $0.20!,5.0,5,12,0.3999999999999999,66.66666666666666,0.30209268080070617,[],50.0,12,3,None,0.29597523802658543,Adjusting RT...,,,016,Scanner,1,2019_Sep_03_0942,MID,3.1.5,59.93815053074408,
Triangle,3000,0,15,15,15,,128.21853848203318,None,3000,130.25263512699166,None,None,130.25263512699166,None,1.6,16,133.2854888039874,None,1,1,0.3307008700212464,133.2854888039874,None,You did not win or lose anything!,5.0,3,12,0.3999999999999999,68.75,0.3046934252753007,[],50.0,12,3,None,0.3307008700212464,,,,016,Scanner,1,2019_Sep_03_0942,MID,3.1.5,59.93815053074408,
LgReward,4000,0,16,16,16,,135.3350244149915,None,4000,137.36908202600898,None,None,137.36908202600898,None,1.6,17,141.4192462390056,None,None,0,,141.4192462390056,None,You did not win $5.00!,5.0,1,13,0.3999999999999999,64.70588235294117,0.3046934252753007,[0],50.0,12,3,1,0.5383070939918979,,0.138307093991898,,016,Scanner,1,2019_Sep_03_0942,MID,3.1.5,59.93815053074408,
Triangle,4000,0,17,17,17,,143.4527633350226,None,4000,145.48699743999168,None,None,145.48699743999168,None,1.6,18,149.51965767599177,None,1,1,0.3185629890067503,149.51965767599177,None,You did not win or lose anything!,5.0,3,13,0.3999999999999999,66.66666666666666,0.3058492222529215,[0],50.0,12,3,None,0.3185629890067503,,,,016,Scanner,1,2019_Sep_03_0942,MID,3.1.5,59.93815053074408,
SmallReward,2000,0,18,18,18,,151.5701112659881,None,2000,153.60397557803662,None,None,153.60397557803662,None,1.6,19,155.6536078720237,None,None,0,,155.6536078720237,None,You did not win $0.20!,5.0,2,14,0.3999999999999999,63.1578947368421,0.3058492222529215,"[0, 0]",50.0,12,3,1,0.4308987569878808,,0.030898756987880915,,016,Scanner,1,2019_Sep_03_0942,MID,3.1.5,59.93815053074408,
LgPun,1500,0,19,19,19,,157.70370582002215,None,1500,159.7372577030328,None,None,159.7372577030328,None,1.6,20,161.2703899720218,None,None,0,,161.2703899720218,None,You lost $5.00!,0.0,4,15,0.41999999999999993,60.0,0.3058492222529215,[],50.0,15,3,1,0.42641147600254037,Adjusting RT...,0.006411476002540439,,016,Scanner,1,2019_Sep_03_0942,MID,3.1.5,59.93815053074408,
Triangle,2000,0,20,20,20,,163.3037434350117,None,2000,165.3386914540315,None,None,165.3386914540315,None,1.58,21,167.37067415303318,None,1,1,0.2955645240144804,167.37067415303318,None,You did not win or lose anything!,0.0,3,15,0.41999999999999993,61.904761904761905,0.3050580916191953,[],50.0,15,3,None,0.2955645240144804,,,,016,Scanner,1,2019_Sep_03_0942,MID,3.1.5,59.93815053074408,
LgReward,2000,0,21,21,21,,169.42081259400584,None,2000,171.4451384790009,None,None,171.4451384790009,None,1.58,22,173.49627341498854,None,1,1,0.2709636769723147,173.49627341498854,None,You won $5.00!,5.0,1,16,0.41999999999999993,63.63636363636363,0.30262277628727524,[1],50.0,15,3,None,0.2709636769723147,,,,016,Scanner,1,2019_Sep_03_0942,MID,3.1.5,59.93815053074408,
LgPun,2000,0,22,22,22,,175.53821702499408,None,2000,177.562036162999,None,None,177.562036162999,None,1.58,23,179.60501162998844,None,1,1,0.2881635069497861,179.60501162998844,None,You did not lose $5.00!,5.0,4,17,0.41999999999999993,65.21739130434783,0.3016588249981093,"[1, 1]",50.0,15,3,None,0.2881635069497861,,,,016,Scanner,1,2019_Sep_03_0942,MID,3.1.5,59.93815053074408,
SmallReward,1500,0,23,23,23,,181.64717697998276,None,1500,183.6804656549939,None,None,183.6804656549939,None,1.58,24,185.23075610998785,None,1,1,0.3233418960007839,185.23075610998785,None,You won $0.20!,5.2,2,18,0.43999999999999995,66.66666666666666,0.30301401693577645,[],50.0,18,3,None,0.3233418960007839,Adjusting RT...,,,016,Scanner,1,2019_Sep_03_0942,MID,3.1.5,59.93815053074408,
LgPun,1500,0,24,24,24,,187.27256034198217,None,1500,189.29753126000287,None,None,189.29753126000287,None,1.56,25,190.83875397901284,None,1,1,0.27444161905441433,190.83875397901284,None,You did not lose $5.00!,5.2,4,19,0.43999999999999995,68.0,0.3013332876486375,[1],50.0,18,3,None,0.27444161905441433,,,,016,Scanner,1,2019_Sep_03_0942,MID,3.1.5,59.93815053074408,
LgReward,1500,0,25,25,25,,192.8976817969815,None,1500,194.91475262399763,None,None,194.91475262399763,None,1.56,26,196.46457933302736,None,1,1,0.26166593097150326,196.46457933302736,None,You won $5.00!,10.2,1,20,0.43999999999999995,69.23076923076923,0.29912954561101895,"[1, 1]",50.0,18,3,None,0.26166593097150326,,,,016,Scanner,1,2019_Sep_03_0942,MID,3.1.5,59.93815053074408,
Triangle,1500,0,26,26,26,,198.50647799798753,None,1500,200.53264590498293,None,None,200.53264590498293,None,1.56,27,202.07293555198703,None,None,0,,202.07293555198703,None,You did not win or lose anything!,10.2,3,20,0.43999999999999995,66.66666666666666,0.29912954561101895,"[1, 1]",50.0,18,3,1,0.5003474500239826,,0.060347450023982674,,016,Scanner,1,2019_Sep_03_0942,MID,3.1.5,59.93815053074408,
SmallReward,2500,0,27,27,27,,204.11588062002556,None,2500,206.1498336570221,None,None,206.1498336570221,None,1.56,28,208.70001232199138,None,1,1,0.27613035001559183,208.70001232199138,None,You won $0.20!,10.399999999999999,2,21,0.38999999999999996,67.85714285714286,0.29791906163231224,[],100.0,21,3,None,0.27613035001559183,Adjusting RT...,,,016,Scanner,1,2019_Sep_03_0942,MID,3.1.5,59.93815053074408,
SmallPun,1500,0,28,28,28,,210.74015635898104,None,1500,212.77470707101747,None,None,212.77470707101747,None,1.61,29,214.30165608401876,None,None,0,,214.30165608401876,None,You lost $0.20!,10.2,5,22,0.38999999999999996,65.51724137931035,0.29791906163231224,[0],100.0,21,3,1,0.39016763596795495,,0.00016763596795499325,,016,Scanner,1,2019_Sep_03_0942,MID,3.1.5,59.93815053074408,
LgReward,2500,0,29,29,29,,216.35044332203688,None,2500,218.36786002398003,None,None,218.36786002398003,None,1.61,30,220.91880821803352,None,1,1,0.29128501401282847,220.91880821803352,None,You won $5.00!,15.2,1,23,0.38999999999999996,66.66666666666666,0.29758735925133806,"[0, 1]",100.0,21,3,None,0.29128501401282847,,,,016,Scanner,1,2019_Sep_03_0942,MID,3.1.5,59.93815053074408,
LgPun,1500,0,30,30,30,,222.95792399602942,None,1500,224.98539363901364,None,None,224.98539363901364,None,1.61,31,226.52542511798674,None,1,1,0.34366345999296755,226.52542511798674,None,You did not lose $5.00!,15.2,4,24,0.36,67.74193548387096,0.29978145928665373,[],83.33333333333333,24,3,None,0.34366345999296755,Adjusting RT...,,,016,Scanner,1,2019_Sep_03_0942,MID,3.1.5,59.93815053074408,
LgPun,1500,0,31,31,31,,228.5748768679914,None,1500,230.60285380401183,None,None,230.60285380401183,None,1.6400000000000001,32,232.14208257902646,None,1,1,0.31911689904518425,232.14208257902646,None,You did not lose $5.00!,15.2,4,25,0.36,68.75,0.3006603429120415,[1],83.33333333333333,24,3,None,0.31911689904518425,,,,016,Scanner,1,2019_Sep_03_0942,MID,3.1.5,59.93815053074408,
SmallPun,2500,0,32,32,32,,234.17546765500447,None,2500,236.2034995580325,None,None,236.2034995580325,None,1.6400000000000001,33,238.74124870001106,None,None,0,,238.74124870001106,None,You lost $0.20!,15.0,5,26,0.36,66.66666666666666,0.3006603429120415,"[1, 0]",83.33333333333333,24,3,1,0.5857047320017591,,0.2257047320017591,,016,Scanner,1,2019_Sep_03_0942,MID,3.1.5,59.93815053074408,
SmallReward,1500,0,33,33,33,,240.80385689501418,None,1500,242.8381023380207,None,None,242.8381023380207,None,1.6400000000000001,34,244.38820552901598,None,None,0,,244.38820552901598,None,You did not win $0.20!,15.0,2,27,0.38,64.70588235294117,0.3006603429120415,[],49.99999999999999,27,3,1,0.5484121139696799,Adjusting RT...,0.16841211396967992,,016,Scanner,1,2019_Sep_03_0942,MID,3.1.5,59.93815053074408,
LgReward,1500,0,34,34,34,,246.43829037999967,None,1500,248.47228393203113,None,None,248.47228393203113,None,1.62,35,250.02170592802577,None,1,1,0.27236606704536825,250.02170592802577,None,You won $5.00!,20.0,1,28,0.38,65.71428571428571,0.29943015700479486,[1],49.99999999999999,27,3,None,0.27236606704536825,,,,016,Scanner,1,2019_Sep_03_0942,MID,3.1.5,59.93815053074408,
SmallPun,1500,0,35,35,35,,252.0765963490121,None,1500,254.1065748350229,None,None,254.1065748350229,None,1.62,36,255.63936355203623,None,None,0,,255.63936355203623,None,You lost $0.20!,19.8,5,29,0.38,63.888888888888886,0.29943015700479486,"[1, 0]",49.99999999999999,27,3,1,0.565955916007515,,0.18595591600751504,,016,Scanner,1,2019_Sep_03_0942,MID,3.1.5,59.93815053074408,
SmallPun,3000,0,36,36,36,,257.67706907499814,None,3000,259.70669304201147,None,None,259.70669304201147,None,1.62,37,262.7406377689913,None,1,1,0.25757507199887186,262.7406377689913,None,You did not lose $0.20!,19.8,5,30,0.4,64.86486486486487,0.297686195129548,[],49.99999999999999,30,3,None,0.25757507199887186,Adjusting RT...,,,016,Scanner,1,2019_Sep_03_0942,MID,3.1.5,59.93815053074408,
SmallReward,3000,0,37,37,37,,264.7902401299798,None,3000,266.8242068149848,None,1,266.8242068149848,None,1.6,38,269.87390428298386,None,None,0,,269.87390428298386,None,You did not win $0.20!,19.8,2,31,0.4,63.1578947368421,0.297686195129548,[0],49.99999999999999,30,3,None,0.25757507199887186,,,2.607886722020339,016,Scanner,1,2019_Sep_03_0942,MID,3.1.5,59.93815053074408,
SmallPun,1500,0,38,38,38,,271.90758474799804,None,1500,273.94130563299404,None,None,273.94130563299404,None,1.6,39,275.47566179500427,None,None,0,,275.47566179500427,None,You lost $0.20!,19.6,5,32,0.4,61.53846153846154,0.297686195129548,"[0, 0]",49.99999999999999,30,3,1,0.3918599730008282,,-0.008140026999171823,,016,Scanner,1,2019_Sep_03_0942,MID,3.1.5,59.93815053074408,
LgReward,2000,0,39,39,39,,277.52519406203646,None,2000,279.5423459659796,None,None,279.5423459659796,None,1.6,40,281.5925278629875,None,None,0,,281.5925278629875,None,You did not win $5.00!,19.6,1,33,0.44,60.0,0.297686195129548,[],33.33333333333333,33,3,None,0.3918599730008282,Adjusting RT...,,,016,Scanner,1,2019_Sep_03_0942,MID,3.1.5,59.93815053074408,
LgPun,2500,0,40,40,40,,283.62822002300527,None,2500,285.6603743649903,None,None,285.6603743649903,None,1.56,41,288.1938144019805,None,1,1,0.4014031810220331,288.1938144019805,None,You did not lose $5.00!,19.6,4,34,0.44,60.97560975609756,0.30183487456524744,[1],33.33333333333333,33,3,None,0.4014031810220331,,,,016,Scanner,1,2019_Sep_03_0942,MID,3.1.5,59.93815053074408,
Triangle,3500,0,41,41,41,,290.2287186390022,None,3500,292.26082198199583,None,None,292.26082198199583,None,1.56,42,295.79412844002945,None,1,1,0.3160946689895354,295.79412844002945,None,You did not win or lose anything!,19.6,3,34,0.44,61.904761904761905,0.30238332819695085,[1],33.33333333333333,33,3,None,0.3160946689895354,,,,016,Scanner,1,2019_Sep_03_0942,MID,3.1.5,59.93815053074408,
SmallPun,2000,0,42,42,42,,297.8292568710167,None,2000,299.86220611300087,None,None,299.86220611300087,None,1.56,43,301.89487900800304,None,1,1,0.32021261897170916,301.89487900800304,None,You did not lose $0.20!,19.6,5,35,0.44,62.7906976744186,0.3030436722997197,"[1, 1]",33.33333333333333,33,3,None,0.32021261897170916,,,,016,Scanner,1,2019_Sep_03_0942,MID,3.1.5,59.93815053074408,
LgPun,4000,0,43,43,43,,303.9297747600358,None,4000,305.9631492359913,None,None,305.9631492359913,None,1.56,44,309.9961334200343,None,1,1,0.37907795998035,309.9961334200343,None,You did not lose $5.00!,19.6,4,36,0.46,63.63636363636363,0.3057591825740279,[],50.0,36,3,None,0.37907795998035,Adjusting RT...,,,016,Scanner,1,2019_Sep_03_0942,MID,3.1.5,59.93815053074408,
Triangle,1500,0,44,44,44,,312.0306620390038,None,1500,314.0635609999881,None,1,314.0635609999881,None,1.54,45,315.59728524601087,None,None,0,,315.59728524601087,None,You did not win or lose anything!,19.6,3,36,0.46,62.22222222222222,0.3057591825740279,[],50.0,36,3,None,0.37907795998035,,,1.2965664169751108,016,Scanner,1,2019_Sep_03_0942,MID,3.1.5,59.93815053074408,
LgReward,3500,0,45,45,45,,317.6644311620039,None,3500,319.6970691040042,None,None,319.6970691040042,None,1.54,46,323.2476404340123,None,None,0,,323.2476404340123,None,You did not win $5.00!,19.6,1,37,0.46,60.86956521739131,0.3057591825740279,[0],50.0,36,3,1,0.4641422480135225,,0.004142248013522476,,016,Scanner,1,2019_Sep_03_0942,MID,3.1.5,59.93815053074408,
Triangle,1500,0,46,46,46,,325.2812780389795,None,1500,327.31582811498083,None,None,327.31582811498083,None,1.54,47,328.84843457798706,None,1,1,0.40577058895723894,328.84843457798706,None,You did not win or lose anything!,19.6,3,37,0.46,61.702127659574465,0.30920785175965587,[0],50.0,36,3,None,0.40577058895723894,,,,016,Scanner,1,2019_Sep_03_0942,MID,3.1.5,59.93815053074408,
LgReward,3000,0,47,47,47,,330.9152162540122,None,3000,332.9494432199863,None,None,332.9494432199863,None,1.54,48,335.9991428880021,None,1,1,0.39698592299828306,335.9991428880021,None,You won $5.00!,24.6,1,38,0.46,62.5,0.3121337874676101,"[0, 1]",50.0,36,3,None,0.39698592299828306,,,,016,Scanner,1,2019_Sep_03_0942,MID,3.1.5,59.93815053074408,
LgPun,3500,0,48,48,48,,338.0321752720047,None,3500,340.06621891399845,None,None,340.06621891399845,None,1.54,49,343.5992647440289,None,1,1,0.3468452870147303,343.5992647440289,None,You did not lose $5.00!,24.6,4,39,0.43000000000000005,63.26530612244898,0.31325351325945267,[],83.33333333333333,39,3,None,0.3468452870147303,Adjusting RT...,,,016,Scanner,1,2019_Sep_03_0942,MID,3.1.5,59.93815053074408,
LgReward,1500,0,49,49,49,,345.6661438230076,None,1500,347.69976031401893,None,None,347.69976031401893,None,1.5699999999999998,50,349.2498477480258,None,1,1,0.3312232419848442,349.2498477480258,None,You won $5.00!,29.6,1,40,0.43000000000000005,64.0,0.31381506728212116,[1],83.33333333333333,39,3,None,0.3312232419848442,,,,016,Scanner,1,2019_Sep_03_0942,MID,3.1.5,59.93815053074408,
,,,,,,,,,,,,,,,,,,,,,,,,,,,,,,,,,,,,,,,,016,Scanner,1,2019_Sep_03_0942,MID,3.1.5,59.93815053074408,
