Condition,FixationDur,trials.thisRepN,trials.thisTrialN,trials.thisN,trials.thisIndex,TrialOrder,cueImage.started,cueImage.stopped,FixationDur,fixation.started,fixation.stopped,fixationResp.keys,fixationResp.started,fixationResp.stopped,feedbackDur,Trial counter,Target.started,Target.stopped,probeResp.keys,probeResp.corr,probeResp.rt,probeResp.started,probeResp.stopped,msg,TrackEarnings,TrialType,NonNeutralTrialsNum,probeDur,percentacc_total,meanrt,UserAcc,Acc,AdjTrial,AdjTrialInc,feedback_resp.keys,OverallRT,feedback_resp.rt,AdjRTmsg,fixationResp.rt,participant,prac_or_scan,run,date,expName,psychopyVersion,frameRate,
SmallPun,1500,0,0,0,0,TimeVersion12.csv,30.994030719972216,None,1500,33.01077797700418,None,None,33.01077797700418,None,1.62,1,34.543859332974534,None,1,1,0.2721561669604853,34.543859332974534,None,You did not lose $0.20!,0,5,1,0.37999999999999995,100.0,0.2721561669604853,[1],0,0,3,None,0.2721561669604853,,,,016,Scanner,2,2019_Sep_03_0948,MID,3.1.5,59.754832015460615,
LgPun,3500,0,1,1,1,,36.59335146500962,None,3500,38.628524535975885,None,None,38.628524535975885,None,1.62,2,42.16195321799023,None,1,1,0.299954138987232,42.16195321799023,None,You did not lose $5.00!,0,4,2,0.37999999999999995,100.0,0.28605515297385864,"[1, 1]",0,0,3,None,0.299954138987232,,,,016,Scanner,2,2019_Sep_03_0948,MID,3.1.5,59.754832015460615,
Triangle,2500,0,2,2,2,,44.211094444966875,None,2500,46.23410580196651,None,None,46.23410580196651,None,1.62,3,48.77838980598608,None,None,0,,48.77838980598608,None,You did not win or lose anything!,0,3,2,0.37999999999999995,66.66666666666666,0.28605515297385864,"[1, 1]",0,0,3,1,0.4065889109577983,0.026588910957798362,,,016,Scanner,2,2019_Sep_03_0948,MID,3.1.5,59.754832015460615,
LgPun,3000,0,3,3,3,,50.828842949005775,None,3000,52.85196545399958,None,None,52.85196545399958,None,1.62,4,55.895813937007915,None,1,1,0.2752213659696281,55.895813937007915,None,You did not lose $5.00!,0,4,3,0.32999999999999996,75.0,0.2824438906391151,[],100.0,3,3,None,0.2752213659696281,,Adjusting RT...,,016,Scanner,2,2019_Sep_03_0948,MID,3.1.5,59.754832015460615,
SmallReward,4000,0,4,4,4,,57.94588862097589,None,4000,59.96992149297148,None,None,59.96992149297148,None,1.67,5,64.02181822195416,None,None,0,,64.02181822195416,None,You did not win $0.20!,0,2,4,0.32999999999999996,60.0,0.2824438906391151,[0],100.0,3,3,1,0.34524283899925645,0.015242838999256492,,,016,Scanner,2,2019_Sep_03_0948,MID,3.1.5,59.754832015460615,
LgReward,1500,0,5,5,5,,66.08660072798375,None,1500,68.12084274698282,None,None,68.12084274698282,None,1.67,6,69.67174634395633,None,None,0,,69.67174634395633,None,You did not win $5.00!,0,1,5,0.32999999999999996,50.0,0.2824438906391151,"[0, 0]",100.0,3,3,None,0.34524283899925645,,,,016,Scanner,2,2019_Sep_03_0948,MID,3.1.5,59.754832015460615,
SmallPun,4000,0,6,6,6,,71.72995280398754,None,4000,73.75450449896744,None,None,73.75450449896744,None,1.67,7,77.79680608498165,None,None,0,,77.79680608498165,None,You lost $0.20!,-0.2,5,6,0.35,42.857142857142854,0.2824438906391151,[],50.0,6,3,1,0.39178239399334414,0.04178239399334416,Adjusting RT...,,016,Scanner,2,2019_Sep_03_0948,MID,3.1.5,59.754832015460615,
SmallReward,2000,0,7,7,7,,79.8572862999863,None,2000,81.89753099100199,None,None,81.89753099100199,None,1.65,8,83.93964319699444,None,1,1,0.30238828697474673,83.93964319699444,None,You won $0.20!,0.0,2,7,0.35,50.0,0.287429989723023,[1],50.0,6,3,None,0.30238828697474673,,,,016,Scanner,2,2019_Sep_03_0948,MID,3.1.5,59.754832015460615,
SmallPun,1500,0,8,8,8,,85.98089987196727,None,1500,88.00655266497051,None,None,88.00655266497051,None,1.65,9,89.54785824398277,None,1,1,0.3051729879807681,89.54785824398277,None,You did not lose $0.20!,0.0,5,8,0.35,55.55555555555556,0.29097858937457205,"[1, 1]",50.0,6,3,None,0.3051729879807681,,,,016,Scanner,2,2019_Sep_03_0948,MID,3.1.5,59.754832015460615,
SmallPun,3000,0,9,9,9,,91.58101118798368,None,3000,93.60736295697279,None,None,93.60736295697279,None,1.65,10,96.6475138909882,None,1,1,0.2843861879664473,96.6475138909882,None,You did not lose $0.20!,0.0,5,9,0.37,60.0,0.28987985580655123,[],50.0,9,3,None,0.2843861879664473,,Adjusting RT...,,016,Scanner,2,2019_Sep_03_0948,MID,3.1.5,59.754832015460615,
LgReward,4000,0,10,10,10,,98.69155323499581,None,4000,100.7255032149842,None,None,100.7255032149842,None,1.63,11,104.77554547699401,None,None,0,,104.77554547699401,None,You did not win $5.00!,0.0,1,10,0.37,54.54545454545454,0.28987985580655123,[0],50.0,9,3,1,0.3889580399892293,0.01895803998922929,,,016,Scanner,2,2019_Sep_03_0948,MID,3.1.5,59.754832015460615,
LgReward,2500,0,11,11,11,,106.83211705100257,None,2500,108.85961920395494,None,None,108.85961920395494,None,1.63,12,111.41033011098625,None,1,1,0.3387238549767062,111.41033011098625,None,You won $5.00!,5.0,1,11,0.37,58.333333333333336,0.29685756997371626,"[0, 1]",50.0,9,3,None,0.3387238549767062,,,,016,Scanner,2,2019_Sep_03_0948,MID,3.1.5,59.754832015460615,
Triangle,1500,0,12,12,12,,113.44932111399248,None,1500,115.47763678897172,None,None,115.47763678897172,None,1.63,13,117.01200703997165,None,1,1,0.3218888440169394,117.01200703997165,None,You did not win or lose anything!,5.0,3,11,0.37,61.53846153846154,0.29998647922911914,"[0, 1]",50.0,9,3,None,0.3218888440169394,,,,016,Scanner,2,2019_Sep_03_0948,MID,3.1.5,59.754832015460615,
LgReward,1500,0,13,13,13,,119.06055086996639,None,1500,121.09465140395332,None,None,121.09465140395332,None,1.63,14,122.64482245198451,None,None,0,,122.64482245198451,None,You did not win $5.00!,5.0,1,12,0.35,57.14285714285714,0.29998647922911914,[],66.66666666666666,12,3,1,0.3512411550269462,0.0012411550269462168,Adjusting RT...,,016,Scanner,2,2019_Sep_03_0948,MID,3.1.5,59.754832015460615,
SmallReward,1500,0,14,14,14,,124.6943506859825,None,1500,126.72910677798791,None,None,126.72910677798791,None,1.65,15,128.29548043897375,None,1,1,0.28941833903081715,128.29548043897375,None,You won $0.20!,5.2,2,13,0.35,60.0,0.2988122414293078,[1],66.66666666666666,12,3,None,0.28941833903081715,,,,016,Scanner,2,2019_Sep_03_0948,MID,3.1.5,59.754832015460615,
LgPun,1500,0,15,15,15,,130.33354909397895,None,1500,132.36326320498483,None,None,132.36326320498483,None,1.65,16,133.8957023670082,None,None,0,,133.8957023670082,None,You lost $5.00!,0.20000000000000018,4,14,0.35,56.25,0.2988122414293078,"[1, 0]",66.66666666666666,12,3,1,0.3727657979703508,0.022765797970350832,,,016,Scanner,2,2019_Sep_03_0948,MID,3.1.5,59.754832015460615,
SmallReward,2500,0,16,16,16,,135.9466375129996,None,2500,137.98053697799332,None,None,137.98053697799332,None,1.65,17,140.52992003195686,None,1,1,0.26801065099425614,140.52992003195686,None,You won $0.20!,0.4000000000000002,2,15,0.37,58.82352941176471,0.2957320823858026,[],49.99999999999999,15,3,None,0.26801065099425614,,Adjusting RT...,,016,Scanner,2,2019_Sep_03_0948,MID,3.1.5,59.754832015460615,
SmallReward,3000,0,17,17,17,,142.5801335319993,None,3000,144.598567189998,None,1,144.598567189998,None,1.63,18,147.64808423095383,None,None,0,,147.64808423095383,None,You did not win $0.20!,0.4000000000000002,2,16,0.37,55.55555555555556,0.2957320823858026,[0],49.99999999999999,15,3,None,0.26801065099425614,,,0.6594502769876271,016,Scanner,2,2019_Sep_03_0948,MID,3.1.5,59.754832015460615,
Triangle,2000,0,18,18,18,,149.6809586570016,None,2000,151.71600286697503,None,None,151.71600286697503,None,1.63,19,153.7482394379913,None,1,1,0.3077624600264244,153.7482394379913,None,You did not win or lose anything!,0.4000000000000002,3,16,0.37,57.89473684210527,0.2968257530804046,[0],49.99999999999999,15,3,None,0.3077624600264244,,,,016,Scanner,2,2019_Sep_03_0948,MID,3.1.5,59.754832015460615,
SmallReward,3500,0,19,19,19,,155.79896186996484,None,3500,157.83263632800663,None,None,157.83263632800663,None,1.63,20,161.38353829400148,None,None,0,,161.38353829400148,None,You did not win $0.20!,0.4000000000000002,2,17,0.37,55.00000000000001,0.2968257530804046,"[0, 0]",49.99999999999999,15,3,1,0.38585131796309724,0.015851317963097245,,,016,Scanner,2,2019_Sep_03_0948,MID,3.1.5,59.754832015460615,
LgPun,2000,0,20,20,20,,163.4193211919628,None,2000,165.45036631496623,None,None,165.45036631496623,None,1.63,21,167.4848691909574,None,1,1,0.3350425739772618,167.4848691909574,None,You did not lose $5.00!,0.4000000000000002,4,18,0.39,57.14285714285714,0.3000104881551427,[],49.99999999999999,18,3,None,0.3350425739772618,,Adjusting RT...,,016,Scanner,2,2019_Sep_03_0948,MID,3.1.5,59.754832015460615,
LgReward,3000,0,21,21,21,,169.53344775695587,None,3000,171.56775429600384,None,None,171.56775429600384,None,1.6099999999999999,22,174.61799488199176,None,None,0,,174.61799488199176,None,You did not win $5.00!,0.4000000000000002,1,19,0.39,54.54545454545454,0.3000104881551427,[0],49.99999999999999,18,3,1,0.6980184609862045,0.30801846098620445,,,016,Scanner,2,2019_Sep_03_0948,MID,3.1.5,59.754832015460615,
LgReward,2000,0,22,22,22,,176.66839405696373,None,2000,178.70213718200102,None,None,178.70213718200102,None,1.6099999999999999,23,180.75259350799024,None,None,0,,180.75259350799024,None,You did not win $5.00!,0.4000000000000002,1,20,0.39,52.17391304347826,0.3000104881551427,"[0, 0]",49.99999999999999,18,3,1,0.41740966400597246,0.027409664005972445,,,016,Scanner,2,2019_Sep_03_0948,MID,3.1.5,59.754832015460615,
Triangle,3000,0,23,23,23,,182.77020788297523,None,3000,184.80362752900692,None,None,184.80362752900692,None,1.6099999999999999,24,187.83655924996128,None,None,0,,187.83655924996128,None,You did not win or lose anything!,0.4000000000000002,3,20,0.39,50.0,0.3000104881551427,"[0, 0]",49.99999999999999,18,3,1,0.42159036999568344,0.03159036999568343,,,016,Scanner,2,2019_Sep_03_0948,MID,3.1.5,59.754832015460615,
LgPun,2500,0,24,24,24,,189.87067262100754,None,2500,191.90415961499093,None,None,191.90415961499093,None,1.6099999999999999,25,194.43636048398912,None,1,1,0.3195181280025281,194.43636048398912,None,You did not lose $5.00!,0.4000000000000002,4,21,0.43,52.0,0.3015110758357108,[],33.33333333333333,21,3,None,0.3195181280025281,,Adjusting RT...,,016,Scanner,2,2019_Sep_03_0948,MID,3.1.5,59.754832015460615,
SmallReward,1500,0,25,25,25,,196.4866157239885,None,1500,198.50429478497244,None,None,198.50429478497244,None,1.57,26,200.05486284097424,None,None,0,,200.05486284097424,None,You did not win $0.20!,0.4000000000000002,2,22,0.43,50.0,0.3015110758357108,[0],33.33333333333333,21,3,1,0.48220649298280477,0.052206492982804775,,,016,Scanner,2,2019_Sep_03_0948,MID,3.1.5,59.754832015460615,
Triangle,4000,0,26,26,26,,202.08786887995666,None,4000,204.12199050100753,None,None,204.12199050100753,None,1.57,27,208.1556005019811,None,None,0,,208.1556005019811,None,You did not win or lose anything!,0.4000000000000002,3,22,0.43,48.148148148148145,0.3015110758357108,[0],33.33333333333333,21,3,None,0.48220649298280477,,,,016,Scanner,2,2019_Sep_03_0948,MID,3.1.5,59.754832015460615,
SmallPun,2000,0,27,27,27,,210.20551414298825,None,2000,212.23984732996905,None,None,212.23984732996905,None,1.57,28,214.27212382096332,None,None,0,,214.27212382096332,None,You lost $0.20!,0.20000000000000018,5,23,0.43,46.42857142857143,0.3015110758357108,"[0, 0]",33.33333333333333,21,3,1,1.6855500319576822,1.2555500319576822,,,016,Scanner,2,2019_Sep_03_0948,MID,3.1.5,59.754832015460615,
Triangle,1500,0,28,28,28,,216.3227024099906,None,1500,218.35691455897177,None,None,218.35691455897177,None,1.57,29,219.88917557400418,None,1,1,0.3478345720213838,219.88917557400418,None,You did not win or lose anything!,0.20000000000000018,3,23,0.43,48.275862068965516,0.3048198969918303,"[0, 0]",33.33333333333333,21,3,None,0.3478345720213838,,,,016,Scanner,2,2019_Sep_03_0948,MID,3.1.5,59.754832015460615,
SmallPun,3500,0,29,29,29,,221.9396455019596,None,3500,223.97388676798437,None,None,223.97388676798437,None,1.57,30,227.50617424200755,None,1,1,0.37383272498846054,227.50617424200755,None,You did not lose $0.20!,0.20000000000000018,5,24,0.47,50.0,0.30942075219160564,[],33.33333333333333,24,3,None,0.37383272498846054,,Adjusting RT...,,016,Scanner,2,2019_Sep_03_0948,MID,3.1.5,59.754832015460615,
Triangle,2000,0,30,30,30,,229.55688036198262,None,2000,231.5906834449852,None,1,231.5906834449852,None,1.53,31,233.62398329999996,None,None,0,,233.62398329999996,None,You did not win or lose anything!,0.20000000000000018,3,24,0.47,48.38709677419355,0.30942075219160564,[],33.33333333333333,24,3,1,0.5558519419562071,0.08585194195620716,,1.342333628970664,016,Scanner,2,2019_Sep_03_0948,MID,3.1.5,59.754832015460615,
SmallPun,1500,0,31,31,31,,235.6572591359727,None,1500,237.6909830379882,None,None,237.6909830379882,None,1.53,32,239.22369945200626,None,None,0,,239.22369945200626,None,You lost $0.20!,1.6653345369377348e-16,5,25,0.47,46.875,0.30942075219160564,[0],33.33333333333333,24,3,1,0.4824241589801386,0.0124241589801386,,,016,Scanner,2,2019_Sep_03_0948,MID,3.1.5,59.754832015460615,
Triangle,3500,0,32,32,32,,241.25738170795375,None,3500,243.29217534995405,None,None,243.29217534995405,None,1.53,33,246.82445464399643,None,None,0,,246.82445464399643,None,You did not win or lose anything!,1.6653345369377348e-16,3,25,0.47,45.45454545454545,0.30942075219160564,[0],33.33333333333333,24,3,1,0.4894723839522339,0.01947238395223394,,,016,Scanner,2,2019_Sep_03_0948,MID,3.1.5,59.754832015460615,
LgReward,3500,0,33,33,33,,248.8751711169607,None,3500,250.908580333984,None,1,250.908580333984,None,1.53,34,254.4586503439932,None,1,1,0.3502218570210971,254.4586503439932,None,You won $5.00!,5.0,1,26,0.47,47.05882352941176,0.3119708212434489,"[0, 1]",33.33333333333333,24,3,None,0.3502218570210971,,,1.8454646170139313,016,Scanner,2,2019_Sep_03_0948,MID,3.1.5,59.754832015460615,
SmallReward,2000,0,34,34,34,,256.5085791639867,None,2000,258.54282904899446,None,None,258.54282904899446,None,1.53,35,260.59253250499023,None,1,1,0.32349616097053513,260.59253250499023,None,You won $0.20!,5.2,2,27,0.49,48.57142857142857,0.31264878240386573,[],49.99999999999999,27,3,None,0.32349616097053513,,Adjusting RT...,,016,Scanner,2,2019_Sep_03_0948,MID,3.1.5,59.754832015460615,
Triangle,1500,0,35,35,35,,262.6266055039596,None,1500,264.6600504819653,None,None,264.6600504819653,None,1.51,36,266.1920120189898,None,1,1,0.41692282096482813,266.1920120189898,None,You did not win or lose anything!,5.2,3,27,0.49,50.0,0.3184417845461414,[],49.99999999999999,27,3,None,0.41692282096482813,,,,016,Scanner,2,2019_Sep_03_0948,MID,3.1.5,59.754832015460615,
LgPun,2000,0,36,36,36,,268.24277431797236,None,2000,270.27689340000506,None,1,270.27689340000506,None,1.51,37,272.30914210597984,None,None,0,,272.30914210597984,None,You lost $5.00!,0.20000000000000018,4,28,0.49,48.64864864864865,0.3184417845461414,[0],49.99999999999999,27,3,None,0.41692282096482813,,,1.8961031430517323,016,Scanner,2,2019_Sep_03_0948,MID,3.1.5,59.754832015460615,
LgReward,1500,0,37,37,37,,274.37666985898977,None,1500,276.4103767279885,None,None,276.4103767279885,None,1.51,38,277.9597364299698,None,1,1,0.3542826590128243,277.9597364299698,None,You won $5.00!,5.2,1,29,0.49,50.0,0.32032814636017737,"[0, 1]",49.99999999999999,27,3,None,0.3542826590128243,,,,016,Scanner,2,2019_Sep_03_0948,MID,3.1.5,59.754832015460615,
LgPun,1500,0,38,38,38,,279.9929185489891,None,1500,282.027824891964,None,None,282.027824891964,None,1.51,39,283.5606470750063,None,None,0,,283.5606470750063,None,You lost $5.00!,0.20000000000000018,4,30,0.5,48.717948717948715,0.32032814636017737,[],49.99999999999999,30,3,None,0.3542826590128243,,Adjusting RT...,,016,Scanner,2,2019_Sep_03_0948,MID,3.1.5,59.754832015460615,
Triangle,1500,0,39,39,39,,285.59335938299773,None,1500,287.62777593097417,None,None,287.62777593097417,None,1.5,40,289.16082833497785,None,1,1,0.4051829230156727,289.16082833497785,None,You did not win or lose anything!,0.20000000000000018,3,30,0.5,50.0,0.32457088519295213,[],49.99999999999999,30,3,None,0.4051829230156727,,,,016,Scanner,2,2019_Sep_03_0948,MID,3.1.5,59.754832015460615,
LgReward,2000,0,40,40,40,,291.2278089229949,None,2000,293.261322011007,None,None,293.261322011007,None,1.5,41,295.3116484119673,None,None,0,,295.3116484119673,None,You did not win $5.00!,0.20000000000000018,1,31,0.5,48.78048780487805,0.32457088519295213,[0],49.99999999999999,30,3,1,0.5100963489967398,0.010096348996739835,,,016,Scanner,2,2019_Sep_03_0948,MID,3.1.5,59.754832015460615,
LgPun,1500,0,41,41,41,,297.34497216000455,None,1500,299.37851912598126,None,None,299.37851912598126,None,1.5,42,300.911138431984,None,1,1,0.37284739199094474,300.911138431984,None,You did not lose $5.00!,0.20000000000000018,4,32,0.5,50.0,0.32686976646904703,"[0, 1]",49.99999999999999,30,3,None,0.37284739199094474,,,,016,Scanner,2,2019_Sep_03_0948,MID,3.1.5,59.754832015460615,
SmallReward,1500,0,42,42,42,,302.9675238019554,None,1500,304.9848836119636,None,None,304.9848836119636,None,1.5,43,306.5361030449858,None,None,0,,306.5361030449858,None,You did not win $0.20!,0.20000000000000018,2,33,0.5,48.837209302325576,0.32686976646904703,[],33.33333333333333,33,3,1,0.5559862239751965,0.05598622397519648,Adjusting RT...,,016,Scanner,2,2019_Sep_03_0948,MID,3.1.5,59.754832015460615,
SmallPun,1500,0,43,43,43,,308.57904551696265,None,1500,310.6122727050097,None,None,310.6122727050097,None,1.5,44,312.14543045597384,None,1,1,0.32660732499789447,312.14543045597384,None,You did not lose $0.20!,0.20000000000000018,5,34,0.5,50.0,0.32685783731126733,[1],33.33333333333333,33,3,None,0.32660732499789447,,,,016,Scanner,2,2019_Sep_03_0948,MID,3.1.5,59.754832015460615,
SmallPun,2500,0,44,44,44,,314.17918084800476,None,2500,316.2029123589746,None,None,316.2029123589746,None,1.5,45,318.7462405670085,None,None,0,,318.7462405670085,None,You lost $0.20!,1.6653345369377348e-16,5,35,0.5,48.888888888888886,0.32685783731126733,"[1, 0]",33.33333333333333,33,3,1,0.6887554819695652,0.18875548196956515,,,016,Scanner,2,2019_Sep_03_0948,MID,3.1.5,59.754832015460615,
LgPun,1500,0,45,45,45,,320.7796786139952,None,1500,322.8043768769712,None,None,322.8043768769712,None,1.5,46,324.3464456030051,None,1,1,0.3034999059746042,324.3464456030051,None,You did not lose $5.00!,1.6653345369377348e-16,4,36,0.5,50.0,0.3258422750792385,[],49.99999999999999,36,3,None,0.3034999059746042,,Adjusting RT...,,016,Scanner,2,2019_Sep_03_0948,MID,3.1.5,59.754832015460615,
LgReward,1500,0,46,46,46,,326.3968871469842,None,1500,328.42214784095995,None,None,328.42214784095995,None,1.5,47,329.98041884897975,None,1,1,0.4554977439693175,329.98041884897975,None,You won $5.00!,5.0,1,37,0.5,51.06382978723404,0.3312445862829918,[1],49.99999999999999,36,3,None,0.4554977439693175,,,,016,Scanner,2,2019_Sep_03_0948,MID,3.1.5,59.754832015460615,
SmallReward,1500,0,47,47,47,,332.0219978420064,None,1500,334.0550877529895,None,None,334.0550877529895,None,1.5,48,335.60607620800147,None,1,1,0.3958028420456685,335.60607620800147,None,You won $0.20!,5.2,2,38,0.5,52.083333333333336,0.3338269165134989,"[1, 1]",49.99999999999999,36,3,None,0.3958028420456685,,,,016,Scanner,2,2019_Sep_03_0948,MID,3.1.5,59.754832015460615,
SmallPun,2000,0,48,48,48,,337.6474293859792,None,2000,339.67253436998,None,None,339.67253436998,None,1.5,49,341.71397312695626,None,1,1,0.4189271139912307,341.71397312695626,None,You did not lose $0.20!,5.2,5,39,0.47,53.06122448979592,0.33710000103187315,[],83.33333333333333,39,3,None,0.4189271139912307,,Adjusting RT...,,016,Scanner,2,2019_Sep_03_0948,MID,3.1.5,59.754832015460615,
LgPun,4000,0,49,49,49,,343.74745638499735,None,4000,345.7734476279584,None,None,345.7734476279584,None,1.53,50,349.81493163097184,None,1,1,0.27710359898628667,349.81493163097184,None,You did not lose $5.00!,5.2,4,40,0.47,54.0,0.33487791206722184,[1],83.33333333333333,39,3,None,0.27710359898628667,,,,016,Scanner,2,2019_Sep_03_0948,MID,3.1.5,59.754832015460615,
,,,,,,,,,,,,,,,,,,,,,,,,,,,,,,,,,,,,,,,,016,Scanner,2,2019_Sep_03_0948,MID,3.1.5,59.754832015460615,
