Condition,FixationDur,trials.thisRepN,trials.thisTrialN,trials.thisN,trials.thisIndex,TrialOrder,cueImage.started,cueImage.stopped,FixationDur,fixation.started,fixation.stopped,fixationResp.keys,fixationResp.started,fixationResp.stopped,feedbackDur,Trial counter,Target.started,Target.stopped,probeResp.keys,probeResp.corr,probeResp.rt,probeResp.started,probeResp.stopped,msg,TrackEarnings,TrialType,NonNeutralTrialsNum,probeDur,percentacc_total,meanrt,UserAcc,Acc,AdjTrial,AdjTrialInc,feedback_resp.keys,OverallRT,AdjRTmsg,feedback_resp.rt,fixationResp.rt,participant,prac_or_scan,run,date,expName,psychopyVersion,frameRate,
LgPun,1500,0,0,0,0,TimeVersion13.csv,27.060070023988374,None,1500,29.078149825974833,None,None,29.078149825974833,None,1.65,1,30.618565061013214,None,1,1,0.25316141202347353,30.618565061013214,None,You did not lose $5.00!,0,4,1,0.35,100.0,0.25316141202347353,[1],0,0,3,None,0.25316141202347353,,,,019,Scanner,1,2019_Aug_31_1507,MID,3.1.5,59.436419585067,
LgReward,2000,0,1,1,1,,32.677951243007556,None,2000,34.71108804200776,None,None,34.71108804200776,None,1.65,2,36.76303922798252,None,1,1,0.22357716801343486,36.76303922798252,None,You won $5.00!,5,1,2,0.35,100.0,0.2383692900184542,"[1, 1]",0,0,3,None,0.22357716801343486,,,,019,Scanner,1,2019_Aug_31_1507,MID,3.1.5,59.436419585067,
Triangle,4000,0,2,2,2,,38.80105923500378,None,4000,40.828734848997556,None,None,40.828734848997556,None,1.65,3,44.86374231200898,None,1,1,0.27287211205111817,44.86374231200898,None,You did not win or lose anything!,5,3,2,0.35,100.0,0.24987023069600886,"[1, 1]",0,0,3,None,0.27287211205111817,,,,019,Scanner,1,2019_Aug_31_1507,MID,3.1.5,59.436419585067,
LgPun,1500,0,3,3,3,,46.90215307602193,None,1500,48.93007122701965,None,None,48.93007122701965,None,1.65,4,50.462770461977925,None,1,1,0.2509625849779695,50.462770461977925,None,You did not lose $5.00!,5,4,3,0.3,100.0,0.250143319266499,[],100.0,3,3,None,0.2509625849779695,Adjusting RT...,,,019,Scanner,1,2019_Aug_31_1507,MID,3.1.5,59.436419585067,
LgReward,1500,0,4,4,4,,52.519277227984276,None,1500,54.54743148898706,None,None,54.54743148898706,None,1.7,5,56.09721203200752,None,1,1,0.24039661197457463,56.09721203200752,None,You won $5.00!,10,1,4,0.3,100.0,0.24819397780811414,[1],100.0,3,3,None,0.24039661197457463,,,,019,Scanner,1,2019_Aug_31_1507,MID,3.1.5,59.436419585067,
LgPun,2000,0,5,5,5,,58.13619424798526,None,2000,60.164531628019176,None,None,60.164531628019176,None,1.7,6,62.198405764007475,None,1,1,0.22018491401104257,62.198405764007475,None,You did not lose $5.00!,10,4,5,0.3,100.0,0.2435258005086022,"[1, 1]",100.0,3,3,None,0.22018491401104257,,,,019,Scanner,1,2019_Aug_31_1507,MID,3.1.5,59.436419585067,
Triangle,3000,0,6,6,6,,64.23648969799979,None,3000,66.26492634700844,None,None,66.26492634700844,None,1.7,7,69.29906783200568,None,None,0,,69.29906783200568,None,You did not win or lose anything!,10,3,5,0.3,85.71428571428571,0.2435258005086022,"[1, 1]",100.0,3,3,None,0.22018491401104257,,,,019,Scanner,1,2019_Aug_31_1507,MID,3.1.5,59.436419585067,
SmallReward,2000,0,7,7,7,,71.34896750102052,None,2000,73.38301294797566,None,None,73.38301294797566,None,1.7,8,75.43231899099192,None,1,1,0.23842911404790357,75.43231899099192,None,You won $0.20!,10.2,2,6,0.25,87.5,0.24279770244278812,[],100.0,6,3,None,0.23842911404790357,Adjusting RT...,,,019,Scanner,1,2019_Aug_31_1507,MID,3.1.5,59.436419585067,
Triangle,2000,0,8,8,8,,77.47053338901605,None,2000,79.50116990797687,None,None,79.50116990797687,None,1.75,9,81.53436332300771,None,None,0,,81.53436332300771,None,You did not win or lose anything!,10.2,3,6,0.25,77.77777777777779,0.24279770244278812,[],100.0,6,3,None,0.23842911404790357,,,,019,Scanner,1,2019_Aug_31_1507,MID,3.1.5,59.436419585067,
SmallReward,2500,0,9,9,9,,83.58496388001367,None,2500,85.61880639998708,None,None,85.61880639998708,None,1.75,10,88.16784220997943,None,None,0,,88.16784220997943,None,You did not win $0.20!,10.2,2,7,0.25,70.0,0.24279770244278812,[0],100.0,6,3,None,0.23842911404790357,,,,019,Scanner,1,2019_Aug_31_1507,MID,3.1.5,59.436419585067,
Triangle,3500,0,10,10,10,,90.2048730860115,None,3500,92.23552086699056,None,None,92.23552086699056,None,1.75,11,95.76962887099944,None,None,0,,95.76962887099944,None,You did not win or lose anything!,10.2,3,7,0.25,63.63636363636363,0.24279770244278812,[0],100.0,6,3,1,0.252639917016495,,0.002639917016495019,,019,Scanner,1,2019_Aug_31_1507,MID,3.1.5,59.436419585067,
SmallReward,4000,0,11,11,11,,97.8193480729824,None,4000,99.85353215999203,None,None,99.85353215999203,None,1.75,12,103.9034213279956,None,None,0,,103.9034213279956,None,You did not win $0.20!,10.2,2,8,0.25,58.333333333333336,0.24279770244278812,"[0, 0]",100.0,6,3,1,0.2807953199953772,,0.030795319995377213,,019,Scanner,1,2019_Aug_31_1507,MID,3.1.5,59.436419585067,
SmallPun,4000,0,12,12,12,,105.93915280199144,None,4000,107.97126220801147,None,None,107.97126220801147,None,1.75,13,112.00449707900407,None,None,0,,112.00449707900407,None,You lost $0.20!,10.0,5,9,0.27,53.84615384615385,0.24279770244278812,[],50.0,9,3,1,0.2605863440362737,Adjusting RT...,-0.009413655963726342,,019,Scanner,1,2019_Aug_31_1507,MID,3.1.5,59.436419585067,
SmallReward,1500,0,13,13,13,,114.0552100649802,None,1500,116.08841022098204,None,None,116.08841022098204,None,1.73,14,117.6381748120184,None,None,0,,117.6381748120184,None,You did not win $0.20!,10.0,2,10,0.27,50.0,0.24279770244278812,[0],50.0,9,3,None,0.2605863440362737,,,,019,Scanner,1,2019_Aug_31_1507,MID,3.1.5,59.436419585067,
Triangle,1500,0,14,14,14,,119.67331823997665,None,1500,121.70670180401066,None,None,121.70670180401066,None,1.73,15,123.23931914597051,None,None,0,,123.23931914597051,None,You did not win or lose anything!,10.0,3,10,0.27,46.666666666666664,0.24279770244278812,[0],50.0,9,3,1,0.28519921101862566,,0.015199211018625647,,019,Scanner,1,2019_Aug_31_1507,MID,3.1.5,59.436419585067,
LgPun,1500,0,15,15,15,,125.27328415797092,None,1500,127.30675913399318,None,None,127.30675913399318,None,1.73,16,128.8403442230192,None,None,0,,128.8403442230192,None,You lost $5.00!,5.0,4,11,0.27,43.75,0.24279770244278812,"[0, 0]",50.0,9,3,None,0.28519921101862566,,,,019,Scanner,1,2019_Aug_31_1507,MID,3.1.5,59.436419585067,
SmallPun,2000,0,16,16,16,,130.87438111397205,None,2000,132.90749316598522,None,None,132.90749316598522,None,1.73,17,134.94124207500136,None,None,0,,134.94124207500136,None,You lost $0.20!,4.8,5,12,0.34,41.17647058823529,0.24279770244278812,[],0.0,12,3,None,0.28519921101862566,Adjusting RT...,,,019,Scanner,1,2019_Aug_31_1507,MID,3.1.5,59.436419585067,
SmallReward,3000,0,17,17,17,,136.9916055899812,None,3000,139.02531960600754,None,1,139.02531960600754,None,1.66,18,142.0754305680166,None,1,1,0.2462629060028121,142.0754305680166,None,You won $0.20!,5.0,2,13,0.34,44.44444444444444,0.24323085288779112,[1],0.0,12,3,None,0.2462629060028121,,,0.23842056700959802,019,Scanner,1,2019_Aug_31_1507,MID,3.1.5,59.436419585067,
LgPun,3500,0,18,18,18,,144.1085619960213,None,3500,146.1420805939706,None,None,146.1420805939706,None,1.66,19,149.6757038210053,None,1,1,0.2518921699956991,149.6757038210053,None,You did not lose $5.00!,5.0,4,14,0.34,47.368421052631575,0.24419322145533645,"[1, 1]",0.0,12,3,None,0.2518921699956991,,,,019,Scanner,1,2019_Aug_31_1507,MID,3.1.5,59.436419585067,
Triangle,1500,0,19,19,19,,151.7095239229966,None,1500,153.7429454550147,None,None,153.7429454550147,None,1.66,20,155.2756056979997,None,1,1,0.2819976069731638,155.2756056979997,None,You did not win or lose anything!,5.0,3,14,0.34,50.0,0.24797366000711918,"[1, 1]",0.0,12,3,None,0.2819976069731638,,,,019,Scanner,1,2019_Aug_31_1507,MID,3.1.5,59.436419585067,
LgPun,1500,0,20,20,20,,157.30882461299188,None,1500,159.3433870029985,None,None,159.3433870029985,None,1.66,21,160.8758596769767,None,1,1,0.26686829497339204,160.8758596769767,None,You did not lose $5.00!,5.0,4,15,0.36000000000000004,52.38095238095239,0.24969135409496215,[],50.0,15,3,None,0.26686829497339204,Adjusting RT...,,,019,Scanner,1,2019_Aug_31_1507,MID,3.1.5,59.436419585067,
SmallPun,3500,0,21,21,21,,162.90969060000498,None,3500,164.94360771699576,None,None,164.94360771699576,None,1.64,22,168.47644552198472,None,1,1,0.2652017920045182,168.47644552198472,None,You did not lose $0.20!,5.0,5,16,0.36000000000000004,54.54545454545454,0.25098389058742515,[1],50.0,15,3,None,0.2652017920045182,,,,019,Scanner,1,2019_Aug_31_1507,MID,3.1.5,59.436419585067,
SmallReward,1500,0,22,22,22,,170.54556343099102,None,1500,172.5778656679904,None,None,172.5778656679904,None,1.64,23,174.127186135971,None,1,1,0.22351888997945935,174.127186135971,None,You won $0.20!,5.2,2,17,0.36000000000000004,56.52173913043478,0.24887119823296627,"[1, 1]",50.0,15,3,None,0.22351888997945935,,,,019,Scanner,1,2019_Aug_31_1507,MID,3.1.5,59.436419585067,
SmallPun,2500,0,23,23,23,,176.1770019499818,None,2500,178.21126042702235,None,None,178.21126042702235,None,1.64,24,180.74351306800963,None,1,1,0.22226645395858213,180.74351306800963,None,You did not lose $0.20!,5.2,5,18,0.31000000000000005,58.333333333333336,0.24697085935622454,[],100.0,18,3,None,0.22226645395858213,Adjusting RT...,,,019,Scanner,1,2019_Aug_31_1507,MID,3.1.5,59.436419585067,
SmallPun,1500,0,24,24,24,,182.7941949950182,None,1500,184.82815952698002,None,None,184.82815952698002,None,1.69,25,186.36163250397658,None,None,0,,186.36163250397658,None,You lost $0.20!,5.0,5,19,0.31000000000000005,56.00000000000001,0.24697085935622454,[0],100.0,18,3,1,0.3240047520399094,,0.014004752039909363,,019,Scanner,1,2019_Aug_31_1507,MID,3.1.5,59.436419585067,
LgPun,2500,0,25,25,25,,188.41155751299812,None,2500,190.44558576401323,None,None,190.44558576401323,None,1.69,26,192.97732876701048,None,1,1,0.22843053803080693,192.97732876701048,None,You did not lose $5.00!,5.0,4,20,0.31000000000000005,57.692307692307686,0.24573483793453002,"[0, 1]",100.0,18,3,None,0.22843053803080693,,,,019,Scanner,1,2019_Aug_31_1507,MID,3.1.5,59.436419585067,
SmallReward,1500,0,26,26,26,,195.04538221599068,None,1500,197.07899996300694,None,None,197.07899996300694,None,1.69,27,198.628536366974,None,None,0,,198.628536366974,None,You did not win $0.20!,5.0,2,21,0.29000000000000004,55.55555555555556,0.24573483793453002,[],66.66666666666666,21,3,1,0.31560958499088887,Adjusting RT...,0.025609584990888834,,019,Scanner,1,2019_Aug_31_1507,MID,3.1.5,59.436419585067,
LgReward,1500,0,27,27,27,,200.67851133598015,None,1500,202.7129642139771,None,None,202.7129642139771,None,1.71,28,204.26190617500106,None,1,1,0.21369827399030328,204.26190617500106,None,You won $5.00!,10.0,1,22,0.29000000000000004,57.14285714285714,0.24373255268801586,[1],66.66666666666666,21,3,None,0.21369827399030328,,,,019,Scanner,1,2019_Aug_31_1507,MID,3.1.5,59.436419585067,
LgReward,2500,0,28,28,28,,206.31177263899008,None,2500,208.3460170570179,None,None,208.3460170570179,None,1.71,29,210.89637063199189,None,1,1,0.20027382799889892,210.89637063199189,None,You won $5.00!,15.0,1,23,0.29000000000000004,58.620689655172406,0.2411761571180678,"[1, 1]",66.66666666666666,21,3,None,0.20027382799889892,,,,019,Scanner,1,2019_Aug_31_1507,MID,3.1.5,59.436419585067,
SmallPun,2000,0,29,29,29,,212.91291902196826,None,2000,214.9471635230002,None,None,214.9471635230002,None,1.71,30,216.97959529800573,None,None,0,,216.97959529800573,None,You lost $0.20!,14.8,5,24,0.31000000000000005,56.666666666666664,0.2411761571180678,[],49.99999999999999,24,3,1,0.3335123370075599,Adjusting RT...,0.023512337007559836,,019,Scanner,1,2019_Aug_31_1507,MID,3.1.5,59.436419585067,
SmallReward,1500,0,30,30,30,,219.0468380660168,None,1500,221.08031607797602,None,None,221.08031607797602,None,1.69,31,222.63011073699454,None,1,1,0.25360314099816605,222.63011073699454,None,You won $0.20!,15.0,2,25,0.31000000000000005,58.06451612903226,0.2418665451114066,[1],49.99999999999999,24,3,None,0.25360314099816605,,,,019,Scanner,1,2019_Aug_31_1507,MID,3.1.5,59.436419585067,
SmallPun,1500,0,31,31,31,,224.68078975199023,None,1500,226.71467828500317,None,None,226.71467828500317,None,1.69,32,228.24710949097062,None,None,0,,228.24710949097062,None,You lost $0.20!,14.8,5,26,0.31000000000000005,56.25,0.2418665451114066,"[1, 0]",49.99999999999999,24,3,1,0.33529792004497727,,0.025297920044977218,,019,Scanner,1,2019_Aug_31_1507,MID,3.1.5,59.436419585067,
Triangle,2500,0,32,32,32,,230.29736836598022,None,2500,232.33105438697385,None,None,232.33105438697385,None,1.69,33,234.863800955005,None,1,1,0.24191426602192223,234.863800955005,None,You did not win or lose anything!,14.8,3,26,0.31000000000000005,57.57575757575758,0.24186905673827583,"[1, 0]",49.99999999999999,24,3,None,0.24191426602192223,,,,019,Scanner,1,2019_Aug_31_1507,MID,3.1.5,59.436419585067,
LgReward,1500,0,33,33,33,,236.93178471399006,None,1500,238.954641763994,None,1,238.954641763994,None,1.69,34,240.51511306100292,None,None,0,,240.51511306100292,None,You did not win $5.00!,14.8,1,27,0.33000000000000007,55.88235294117647,0.24186905673827583,[],49.99999999999999,27,3,1,0.3233134110178799,Adjusting RT...,-0.006686588982120156,0.2639492999878712,019,Scanner,1,2019_Aug_31_1507,MID,3.1.5,59.436419585067,
LgPun,2000,0,34,34,34,,242.56436419702368,None,2000,244.58816917001968,None,None,244.58816917001968,None,1.67,35,246.63146959297592,None,1,1,0.23214338603429496,246.63146959297592,None,You did not lose $5.00!,14.8,4,28,0.33000000000000007,57.14285714285714,0.2413827732030768,[1],49.99999999999999,27,3,None,0.23214338603429496,,,,019,Scanner,1,2019_Aug_31_1507,MID,3.1.5,59.436419585067,
LgReward,3500,0,35,35,35,,248.68192363798153,None,3500,250.71529889601516,None,None,250.71529889601516,None,1.67,36,254.25715455098543,None,1,1,0.24246175499865785,254.25715455098543,None,You won $5.00!,19.8,1,29,0.33000000000000007,58.333333333333336,0.24143415328858064,"[1, 1]",49.99999999999999,27,3,None,0.24246175499865785,,,,019,Scanner,1,2019_Aug_31_1507,MID,3.1.5,59.436419585067,
LgPun,3000,0,36,36,36,,256.29934152099304,None,3000,258.323083891999,None,None,258.323083891999,None,1.67,37,261.3666303509963,None,1,1,0.25209618895314634,261.3666303509963,None,You did not lose $5.00!,19.8,4,30,0.31000000000000005,59.45945945945946,0.24191879127333363,[],66.66666666666666,30,3,None,0.25209618895314634,Adjusting RT...,,,019,Scanner,1,2019_Aug_31_1507,MID,3.1.5,59.436419585067,
SmallReward,2000,0,37,37,37,,263.41637111699674,None,2000,265.44074280397035,None,None,265.44074280397035,None,1.69,38,267.5000142909703,None,None,0,,267.5000142909703,None,You did not win $0.20!,19.8,2,31,0.31000000000000005,57.89473684210527,0.24191879127333363,[0],66.66666666666666,30,3,1,0.45718512399122124,,0.1471851239912212,,019,Scanner,1,2019_Aug_31_1507,MID,3.1.5,59.436419585067,
SmallPun,1500,0,38,38,38,,269.5495787009713,None,1500,271.5756565890042,None,None,271.5756565890042,None,1.69,39,273.1173497100244,None,1,1,0.28225763799855486,273.1173497100244,None,You did not lose $0.20!,19.8,5,32,0.31000000000000005,58.97435897435898,0.2436726541744302,"[0, 1]",66.66666666666666,30,3,None,0.28225763799855486,,,,019,Scanner,1,2019_Aug_31_1507,MID,3.1.5,59.436419585067,
LgReward,4000,0,39,39,39,,275.17561890301295,None,4000,277.20939467899734,None,None,277.20939467899734,None,1.69,40,281.2671397399972,None,1,1,0.25244270596886054,281.2671397399972,None,You won $5.00!,24.8,1,33,0.28,60.0,0.24403807299919814,[],83.33333333333333,33,3,None,0.25244270596886054,Adjusting RT...,,,019,Scanner,1,2019_Aug_31_1507,MID,3.1.5,59.436419585067,
Triangle,1500,0,40,40,40,,283.3176368260174,None,1500,285.3437440089765,None,None,285.3437440089765,None,1.72,41,286.884107491991,None,None,0,,286.884107491991,None,You did not win or lose anything!,24.8,3,33,0.28,58.536585365853654,0.24403807299919814,[],83.33333333333333,33,3,1,0.2775397170055658,,-0.0024602829944342375,,019,Scanner,1,2019_Aug_31_1507,MID,3.1.5,59.436419585067,
LgReward,2000,0,41,41,41,,288.9509968229686,None,2000,290.9784247970092,None,None,290.9784247970092,None,1.72,42,293.0278502019937,None,1,1,0.2507558999932371,293.0278502019937,None,You won $5.00!,29.8,1,34,0.28,59.523809523809526,0.2443067860789597,[1],83.33333333333333,33,3,None,0.2507558999932371,,,,019,Scanner,1,2019_Aug_31_1507,MID,3.1.5,59.436419585067,
SmallPun,3000,0,42,42,42,,295.0853196249809,None,3000,297.1126688219956,None,None,297.1126688219956,None,1.72,43,300.1518063530093,None,1,1,0.029795075010042638,300.1518063530093,None,You did not lose $0.20!,29.8,5,35,0.28,60.46511627906976,0.2360563356532321,"[1, 1]",83.33333333333333,33,3,None,0.029795075010042638,,,,019,Scanner,1,2019_Aug_31_1507,MID,3.1.5,59.436419585067,
Triangle,1500,0,43,43,43,,302.18591788300546,None,1500,304.21303510898724,None,None,304.21303510898724,None,1.72,44,305.7472348380252,None,None,0,,305.7472348380252,None,You did not win or lose anything!,29.8,3,35,0.28,59.09090909090909,0.2360563356532321,"[1, 1]",83.33333333333333,33,3,1,0.27450976098887625,,-0.0054902390111237764,,019,Scanner,1,2019_Aug_31_1507,MID,3.1.5,59.436419585067,
SmallPun,1500,0,44,44,44,,307.8024633199675,None,1500,309.8303583060042,None,None,309.8303583060042,None,1.72,45,311.3693879820057,None,None,0,,311.3693879820057,None,You lost $0.20!,29.6,5,36,0.26,57.77777777777777,0.2360563356532321,[],66.66666666666666,36,3,1,0.26113894598325715,Adjusting RT...,0.0011389459832571447,,019,Scanner,1,2019_Aug_31_1507,MID,3.1.5,59.436419585067,
LgPun,4000,0,45,45,45,,313.4194778719684,None,4000,315.4487316349987,None,1,315.4487316349987,None,1.74,46,319.4865032869857,None,None,0,,319.4865032869857,None,You lost $5.00!,24.6,4,37,0.26,56.52173913043478,0.2360563356532321,[0],66.66666666666666,36,3,None,0.26113894598325715,,,0.22399490600218996,019,Scanner,1,2019_Aug_31_1507,MID,3.1.5,59.436419585067,
Triangle,2000,0,46,46,46,,321.5366538980161,None,2000,323.5656294170185,None,None,323.5656294170185,None,1.74,47,325.5993928160169,None,None,0,,325.5993928160169,None,You did not win or lose anything!,24.6,3,37,0.26,55.319148936170215,0.2360563356532321,[0],66.66666666666666,36,3,None,0.26113894598325715,,,,019,Scanner,1,2019_Aug_31_1507,MID,3.1.5,59.436419585067,
LgReward,3000,0,47,47,47,,327.6658101300127,None,3000,329.6998054679716,None,None,329.6998054679716,None,1.74,48,332.74986335699214,None,None,0,,332.74986335699214,None,You did not win $5.00!,24.6,1,38,0.26,54.166666666666664,0.2360563356532321,"[0, 0]",66.66666666666666,36,3,None,0.26113894598325715,,,,019,Scanner,1,2019_Aug_31_1507,MID,3.1.5,59.436419585067,
LgReward,1500,0,48,48,48,,334.79953665297944,None,1500,336.8344423400122,None,None,336.8344423400122,None,1.74,49,338.3834595869994,None,None,0,,338.3834595869994,None,You did not win $5.00!,24.6,1,39,0.3,53.06122448979592,0.2360563356532321,[],33.33333333333333,39,3,1,0.28702138097723945,Adjusting RT...,-0.01297861902276054,,019,Scanner,1,2019_Aug_31_1507,MID,3.1.5,59.436419585067,
SmallReward,3500,0,49,49,49,,340.4343997410033,None,3500,342.46749265596736,None,None,342.46749265596736,None,1.7,50,346.0184767919709,None,1,1,0.23411931400187314,346.0184767919709,None,You won $0.20!,24.8,2,40,0.3,54.0,0.2359845941105892,[1],33.33333333333333,39,3,None,0.23411931400187314,,,,019,Scanner,1,2019_Aug_31_1507,MID,3.1.5,59.436419585067,
,,,,,,,,,,,,,,,,,,,,,,,,,,,,,,,,,,,,,,,,019,Scanner,1,2019_Aug_31_1507,MID,3.1.5,59.436419585067,
