Condition,FixationDur,trials.thisRepN,trials.thisTrialN,trials.thisN,trials.thisIndex,TrialOrder,cueImage.started,cueImage.stopped,FixationDur,fixation.started,fixation.stopped,fixationResp.keys,fixationResp.started,fixationResp.stopped,feedbackDur,Trial counter,Target.started,Target.stopped,probeResp.keys,probeResp.corr,probeResp.started,probeResp.stopped,msg,TrackEarnings,TrialType,NonNeutralTrialsNum,probeDur,percentacc_total,meanrt,UserAcc,Acc,AdjTrial,AdjTrialInc,feedback_resp.keys,feedback_resp.rt,OverallRT,probeResp.rt,AdjRTmsg,fixationResp.rt,participant,prac_or_scan,run,date,expName,psychopyVersion,frameRate,
LgReward,1500,0,0,0,0,TimeVersion1.csv,23.244239473016933,None,1500,25.26118477602722,None,None,25.26118477602722,None,1.65,1,26.811352243006695,None,None,0,26.811352243006695,None,You did not win $5.00!,0,1,1,0.35,0.0,nan,[0],0,0,3,1,0.0904052080004476,0.4404052080004476,,,,019,Scanner,2,2019_Aug_31_1513,MID,3.1.5,59.81797044079377,
Triangle,3500,0,1,1,1,,28.861333364038728,None,3500,30.895043307042215,None,None,30.895043307042215,None,1.65,2,34.42817151203053,None,None,0,34.42817151203053,None,You did not win or lose anything!,0,3,1,0.35,0.0,nan,[0],0,0,3,None,,0.4404052080004476,,,,019,Scanner,2,2019_Aug_31_1513,MID,3.1.5,59.81797044079377,
LgPun,1500,0,2,2,2,,36.47788468003273,None,1500,38.51191404700512,None,None,38.51191404700512,None,1.65,3,40.04476324701682,None,1,1,40.04476324701682,None,You did not lose $5.00!,0,4,2,0.35,33.33333333333333,0.25647648703306913,"[0, 1]",0,0,3,None,,0.25647648703306913,0.25647648703306913,,,019,Scanner,2,2019_Aug_31_1513,MID,3.1.5,59.81797044079377,
SmallReward,3500,0,3,3,3,,42.09551313199336,None,3500,44.129342350002844,None,None,44.129342350002844,None,1.65,4,47.67926068499219,None,None,0,47.67926068499219,None,You did not win $0.20!,0,2,3,0.38999999999999996,25.0,0.25647648703306913,[],33.33333333333333,3,3,1,0.07766889000777155,0.4676688900077715,,Adjusting RT...,,019,Scanner,2,2019_Aug_31_1513,MID,3.1.5,59.81797044079377,
LgReward,1500,0,4,4,4,,49.729102579993196,None,1500,51.7626225129934,None,None,51.7626225129934,None,1.61,5,53.31297447200632,None,1,1,53.31297447200632,None,You won $5.00!,5,1,4,0.38999999999999996,40.0,0.2618121725099627,[1],33.33333333333333,3,3,None,,0.26714785798685625,0.26714785798685625,,,019,Scanner,2,2019_Aug_31_1513,MID,3.1.5,59.81797044079377,
LgPun,2500,0,5,5,5,,55.34615268104244,None,2500,57.37929267802974,None,None,57.37929267802974,None,1.61,6,59.91342243301915,None,1,1,59.91342243301915,None,You did not lose $5.00!,5,4,5,0.38999999999999996,50.0,0.2484860276648154,"[1, 1]",33.33333333333333,3,3,None,,0.22183373797452077,0.22183373797452077,,,019,Scanner,2,2019_Aug_31_1513,MID,3.1.5,59.81797044079377,
LgReward,3500,0,6,6,6,,61.9631355520105,None,3500,63.997372926038224,None,None,63.997372926038224,None,1.61,7,67.54658465803368,None,1,1,67.54658465803368,None,You won $5.00!,10,1,6,0.36999999999999994,57.14285714285714,0.24450395675376058,[],66.66666666666666,6,3,None,,0.23255774402059615,0.23255774402059615,Adjusting RT...,,019,Scanner,2,2019_Aug_31_1513,MID,3.1.5,59.81797044079377,
LgPun,2000,0,7,7,7,,69.58046031900449,None,2000,71.61474491201807,None,None,71.61474491201807,None,1.6300000000000001,8,73.64731911499985,None,None,0,73.64731911499985,None,You lost $5.00!,5,4,7,0.36999999999999994,50.0,0.24450395675376058,[0],66.66666666666666,6,3,1,0.004061502986587584,0.3740615029865875,,,,019,Scanner,2,2019_Aug_31_1513,MID,3.1.5,59.81797044079377,
Triangle,1500,0,8,8,8,,75.68008536903653,None,1500,77.71484413201688,None,None,77.71484413201688,None,1.6300000000000001,9,79.24754908203613,None,1,1,79.24754908203613,None,You did not win or lose anything!,5,3,7,0.36999999999999994,55.55555555555556,0.2523479096009396,[0],66.66666666666666,6,3,None,,0.2837237209896557,0.2837237209896557,,,019,Scanner,2,2019_Aug_31_1513,MID,3.1.5,59.81797044079377,
SmallPun,4000,0,9,9,9,,81.28173327201512,None,4000,83.31490635301452,None,None,83.31490635301452,None,1.6300000000000001,10,87.34797374502523,None,1,1,87.34797374502523,None,You did not lose $0.20!,5,5,8,0.36999999999999994,60.0,0.2510006895075397,"[0, 1]",66.66666666666666,6,3,None,,0.24426458904054016,0.24426458904054016,,,019,Scanner,2,2019_Aug_31_1513,MID,3.1.5,59.81797044079377,
Triangle,2000,0,10,10,10,,89.38191002298845,None,2000,91.41611519904109,None,None,91.41611519904109,None,1.6300000000000001,11,93.44897469104035,None,1,1,93.44897469104035,None,You did not win or lose anything!,5,3,8,0.36999999999999994,63.63636363636363,0.2480219807226344,"[0, 1]",66.66666666666666,6,3,None,,0.23014972801320255,0.23014972801320255,,,019,Scanner,2,2019_Aug_31_1513,MID,3.1.5,59.81797044079377,
Triangle,3000,0,11,11,11,,95.48209627700271,None,3000,97.51651996502187,None,1,97.51651996502187,None,1.6300000000000001,12,100.54928683902835,None,None,0,100.54928683902835,None,You did not win or lose anything!,5,3,8,0.36999999999999994,58.333333333333336,0.2480219807226344,"[0, 1]",66.66666666666666,6,3,1,0.08240458299405873,0.45240458299405867,,,2.9237327149603516,019,Scanner,2,2019_Aug_31_1513,MID,3.1.5,59.81797044079377,
SmallReward,3000,0,12,12,12,,102.59885630803183,None,3000,104.63334965502145,None,None,104.63334965502145,None,1.6300000000000001,13,107.68336565402569,None,1,1,107.68336565402569,None,You won $0.20!,5.2,2,9,0.33999999999999997,61.53846153846154,0.2448783593790722,[],83.33333333333333,9,3,None,,0.22287300997413695,0.22287300997413695,Adjusting RT...,,019,Scanner,2,2019_Aug_31_1513,MID,3.1.5,59.81797044079377,
SmallPun,3000,0,13,13,13,,109.71688951400574,None,3000,111.73887536302209,None,None,111.73887536302209,None,1.6600000000000001,14,114.78281446301844,None,None,0,114.78281446301844,None,You lost $0.20!,5.0,5,10,0.33999999999999997,57.14285714285714,0.2448783593790722,[0],83.33333333333333,9,3,1,0.08598031901055947,0.42598031901055944,,,,019,Scanner,2,2019_Aug_31_1513,MID,3.1.5,59.81797044079377,
LgReward,2000,0,14,14,14,,116.85041826299857,None,2000,118.87355176801793,None,None,118.87355176801793,None,1.6600000000000001,15,120.93438700400293,None,1,1,120.93438700400293,None,You won $5.00!,10.0,1,11,0.33999999999999997,60.0,0.24354479666928658,"[0, 1]",83.33333333333333,9,3,None,,0.2328762949910015,0.2328762949910015,,,019,Scanner,2,2019_Aug_31_1513,MID,3.1.5,59.81797044079377,
SmallPun,2000,0,15,15,15,,122.96747456101002,None,2000,124.99080868903548,None,None,124.99080868903548,None,1.6600000000000001,16,127.03321413800586,None,1,1,127.03321413800586,None,You did not lose $0.20!,10.0,5,12,0.31999999999999995,62.5,0.24169761620578356,[],66.66666666666666,12,3,None,,0.22507299203425646,0.22507299203425646,Adjusting RT...,,019,Scanner,2,2019_Aug_31_1513,MID,3.1.5,59.81797044079377,
LgPun,3000,0,16,16,16,,129.0677090859972,None,3000,131.09213826298947,None,None,131.09213826298947,None,1.6800000000000002,17,134.13484298903495,None,1,1,134.13484298903495,None,You did not lose $5.00!,10.0,4,13,0.31999999999999995,64.70588235294117,0.241491450547156,[1],66.66666666666666,12,3,None,,0.2394297939608805,0.2394297939608805,,,019,Scanner,2,2019_Aug_31_1513,MID,3.1.5,59.81797044079377,
SmallPun,1500,0,17,17,17,,136.16799106099643,None,1500,138.19307269301498,None,None,138.19307269301498,None,1.6800000000000002,18,139.73497601802228,None,1,1,139.73497601802228,None,You did not lose $0.20!,10.0,5,14,0.31999999999999995,66.66666666666666,0.24396346950379666,"[1, 1]",66.66666666666666,12,3,None,,0.2711556780268438,0.2711556780268438,,,019,Scanner,2,2019_Aug_31_1513,MID,3.1.5,59.81797044079377,
LgReward,3000,0,18,18,18,,141.78469809802482,None,3000,143.8104696139926,None,1,143.8104696139926,None,1.6800000000000002,19,146.86059824103722,None,None,0,146.86059824103722,None,You did not win $5.00!,10.0,1,15,0.29999999999999993,63.1578947368421,0.24396346950379666,[],66.66666666666666,15,3,1,0.06361516396282241,0.36361516396282234,,Adjusting RT...,2.776679679984227,019,Scanner,2,2019_Aug_31_1513,MID,3.1.5,59.81797044079377,
LgPun,4000,0,19,19,19,,148.9023798960261,None,4000,150.92779983702349,None,None,150.92779983702349,None,1.7000000000000002,20,154.9693036969984,None,1,1,154.9693036969984,None,You did not lose $5.00!,10.0,4,16,0.29999999999999993,65.0,0.2441098106165345,[1],66.66666666666666,15,3,None,,0.24586590396938846,0.24586590396938846,,,019,Scanner,2,2019_Aug_31_1513,MID,3.1.5,59.81797044079377,
SmallReward,2500,0,20,20,20,,157.01942888001213,None,2500,159.04585584899178,None,None,159.04585584899178,None,1.7000000000000002,21,161.59616669500247,None,None,0,161.59616669500247,None,You did not win $0.20!,10.0,2,17,0.29999999999999993,61.904761904761905,0.2441098106165345,"[1, 0]",66.66666666666666,15,3,1,0.023938669997733086,0.323938669997733,,,,019,Scanner,2,2019_Aug_31_1513,MID,3.1.5,59.81797044079377,
LgPun,3500,0,21,21,21,,163.6368243060424,None,3500,165.6633543310454,None,None,165.6633543310454,None,1.7000000000000002,22,169.20344535802724,None,None,0,169.20344535802724,None,You lost $5.00!,5.0,4,18,0.31999999999999995,59.09090909090909,0.2441098106165345,[],49.99999999999999,18,3,None,,0.323938669997733,,Adjusting RT...,,019,Scanner,2,2019_Aug_31_1513,MID,3.1.5,59.81797044079377,
Triangle,1500,0,22,22,22,,171.23704546299996,None,1500,173.264153747994,None,None,173.264153747994,None,1.6800000000000002,23,174.80409764504293,None,None,0,174.80409764504293,None,You did not win or lose anything!,5.0,3,18,0.31999999999999995,56.52173913043478,0.2441098106165345,[],49.99999999999999,18,3,1,0.16014724102569744,0.4801472410256974,,,,019,Scanner,2,2019_Aug_31_1513,MID,3.1.5,59.81797044079377,
LgReward,2500,0,23,23,23,,176.8484187030117,None,2500,178.88174010702642,None,None,178.88174010702642,None,1.6800000000000002,24,181.43203183502192,None,1,1,181.43203183502192,None,You won $5.00!,10.0,1,19,0.31999999999999995,58.333333333333336,0.24319081707341997,[1],49.99999999999999,18,3,None,,0.23124390101293102,0.23124390101293102,,,019,Scanner,2,2019_Aug_31_1513,MID,3.1.5,59.81797044079377,
Triangle,1500,0,24,24,24,,183.471343842044,None,1500,185.4994548090035,None,None,185.4994548090035,None,1.6800000000000002,25,187.03423574601766,None,None,0,187.03423574601766,None,You did not win or lose anything!,10.0,3,19,0.31999999999999995,56.00000000000001,0.24319081707341997,[1],49.99999999999999,18,3,1,0.09520304499892518,0.41520304499892513,,,,019,Scanner,2,2019_Aug_31_1513,MID,3.1.5,59.81797044079377,
Triangle,2000,0,25,25,25,,189.0716553000384,None,2000,191.10044106299756,None,None,191.10044106299756,None,1.6800000000000002,26,193.132837733021,None,None,0,193.132837733021,None,You did not win or lose anything!,10.0,3,19,0.31999999999999995,53.84615384615385,0.24319081707341997,[1],49.99999999999999,18,3,None,,0.41520304499892513,,,,019,Scanner,2,2019_Aug_31_1513,MID,3.1.5,59.81797044079377,
LgReward,4000,0,26,26,26,,195.18359441001667,None,4000,197.2176987400162,None,None,197.2176987400162,None,1.6800000000000002,27,201.26744507899275,None,1,1,201.26744507899275,None,You won $5.00!,15.0,1,20,0.31999999999999995,55.55555555555556,0.24496262106889238,"[1, 1]",49.99999999999999,18,3,1,-0.0036021609557792544,0.2697678770055063,0.2697678770055063,,,019,Scanner,2,2019_Aug_31_1513,MID,3.1.5,59.81797044079377,
Triangle,2500,0,27,27,27,,203.30633954703808,None,2500,205.33506894099992,None,None,205.33506894099992,None,1.6800000000000002,28,207.86830876598833,None,1,1,207.86830876598833,None,You did not win or lose anything!,15.0,3,20,0.31999999999999995,57.14285714285714,0.24702440843975637,"[1, 1]",49.99999999999999,18,3,None,,0.27795121900271624,0.27795121900271624,,,019,Scanner,2,2019_Aug_31_1513,MID,3.1.5,59.81797044079377,
SmallPun,2500,0,28,28,28,,209.90614413801813,None,2500,211.9359867000021,None,None,211.9359867000021,None,1.6800000000000002,29,214.46958269900642,None,1,1,214.46958269900642,None,You did not lose $0.20!,15.0,5,21,0.29999999999999993,58.620689655172406,0.2461153748274014,[],66.66666666666666,21,3,None,,0.2315708370297216,0.2315708370297216,Adjusting RT...,,019,Scanner,2,2019_Aug_31_1513,MID,3.1.5,59.81797044079377,
SmallReward,2000,0,29,29,29,,216.53598062199308,None,2000,218.57076667802176,None,None,218.57076667802176,None,1.7000000000000002,30,220.619910353038,None,1,1,220.619910353038,None,You won $0.20!,15.2,2,22,0.29999999999999993,60.0,0.24485117628096809,[1],66.66666666666666,21,3,None,,0.22335980099160224,0.22335980099160224,,,019,Scanner,2,2019_Aug_31_1513,MID,3.1.5,59.81797044079377,
LgReward,2000,0,30,30,30,,222.67080988403177,None,2000,224.68778183101676,None,None,224.68778183101676,None,1.7000000000000002,31,226.73780885903398,None,1,1,226.73780885903398,None,You won $5.00!,20.2,1,23,0.29999999999999993,61.29032258064516,0.24362065042307796,"[1, 1]",66.66666666666666,21,3,None,,0.22147118498105556,0.22147118498105556,,,019,Scanner,2,2019_Aug_31_1513,MID,3.1.5,59.81797044079377,
SmallPun,2000,0,31,31,31,,228.77438569802325,None,2000,230.80474070599303,None,None,230.80474070599303,None,1.7000000000000002,32,232.83846734499093,None,None,0,232.83846734499093,None,You lost $0.20!,20.0,5,24,0.2699999999999999,59.375,0.24362065042307796,[],83.33333333333333,24,3,1,0.052496825985144824,0.32249682598514473,,Adjusting RT...,,019,Scanner,2,2019_Aug_31_1513,MID,3.1.5,59.81797044079377,
SmallPun,1500,0,32,32,32,,234.8743355179904,None,1500,236.90626197401434,None,None,236.90626197401434,None,1.73,33,238.43878234899603,None,None,0,238.43878234899603,None,You lost $0.20!,19.8,5,25,0.2699999999999999,57.57575757575758,0.24362065042307796,[0],83.33333333333333,24,3,1,0.12946176395053044,0.39946176395053035,,,,019,Scanner,2,2019_Aug_31_1513,MID,3.1.5,59.81797044079377,
SmallReward,1500,0,33,33,33,,240.4888594270451,None,1500,242.5233670489979,None,None,242.5233670489979,None,1.73,34,244.07272346602986,None,None,0,244.07272346602986,None,You did not win $0.20!,19.8,2,26,0.2699999999999999,55.88235294117647,0.24362065042307796,"[0, 0]",83.33333333333333,24,3,1,0.005104693991597742,0.27510469399159765,,,,019,Scanner,2,2019_Aug_31_1513,MID,3.1.5,59.81797044079377,
SmallReward,1500,0,34,34,34,,246.12313922599424,None,1500,248.1574090300128,None,None,248.1574090300128,None,1.73,35,249.70724327402422,None,1,1,249.70724327402422,None,You won $0.20!,20.0,2,27,0.2899999999999999,57.14285714285714,0.2427399856998818,[],49.99999999999999,27,3,None,,0.22600735595915467,0.22600735595915467,Adjusting RT...,,019,Scanner,2,2019_Aug_31_1513,MID,3.1.5,59.81797044079377,
LgPun,1500,0,35,35,35,,251.74205868900754,None,1500,253.77513573202305,None,None,253.77513573202305,None,1.71,36,255.30786112701753,None,None,0,255.30786112701753,None,You lost $5.00!,15.0,4,28,0.2899999999999999,55.55555555555556,0.2427399856998818,[0],49.99999999999999,27,3,None,,0.22600735595915467,,,,019,Scanner,2,2019_Aug_31_1513,MID,3.1.5,59.81797044079377,
SmallReward,4000,0,36,36,36,,257.3581230349955,None,4000,259.3920756120351,None,None,259.3920756120351,None,1.71,37,263.44230677501764,None,1,1,263.44230677501764,None,You won $0.20!,15.2,2,29,0.2899999999999999,56.75675675675676,0.23164223428604946,"[0, 1]",49.99999999999999,27,3,1,0.17136932502035052,0.009687206009402871,0.009687206009402871,,,019,Scanner,2,2019_Aug_31_1513,MID,3.1.5,59.81797044079377,
SmallPun,1500,0,37,37,37,,265.4766898510279,None,1500,267.51029658399057,None,None,267.51029658399057,None,1.71,38,269.0433788060327,None,None,0,269.0433788060327,None,You lost $0.20!,15.0,5,30,0.3299999999999999,55.26315789473685,0.23164223428604946,[],33.33333333333333,30,3,None,,0.009687206009402871,,Adjusting RT...,,019,Scanner,2,2019_Aug_31_1513,MID,3.1.5,59.81797044079377,
SmallReward,2000,0,38,38,38,,271.0940653900034,None,2000,273.1273644909961,None,None,273.1273644909961,None,1.6700000000000002,39,275.1775590440375,None,None,0,275.1775590440375,None,You did not win $0.20!,15.0,2,31,0.3299999999999999,53.84615384615385,0.23164223428604946,[0],33.33333333333333,30,3,1,0.020324603014159948,0.35032460301415985,,,,019,Scanner,2,2019_Aug_31_1513,MID,3.1.5,59.81797044079377,
SmallPun,3500,0,39,39,39,,277.22709521400975,None,3500,279.2614641400287,None,None,279.2614641400287,None,1.6700000000000002,40,282.7946228060173,None,1,1,282.7946228060173,None,You did not lose $0.20!,15.0,5,32,0.3299999999999999,55.00000000000001,0.2317731732751285,"[0, 1]",33.33333333333333,30,3,None,,0.23452289204578847,0.23452289204578847,,,019,Scanner,2,2019_Aug_31_1513,MID,3.1.5,59.81797044079377,
Triangle,1500,0,40,40,40,,284.8272042720346,None,1500,286.8608777599875,None,None,286.8608777599875,None,1.6700000000000002,41,288.39518570003565,None,None,0,288.39518570003565,None,You did not win or lose anything!,15.0,3,32,0.3299999999999999,53.65853658536586,0.2317731732751285,"[0, 1]",33.33333333333333,30,3,1,0.12670338398311287,0.4567033839831128,,,,019,Scanner,2,2019_Aug_31_1513,MID,3.1.5,59.81797044079377,
SmallPun,1500,0,41,41,41,,290.4449412510148,None,1500,292.4794305069954,None,None,292.4794305069954,None,1.6700000000000002,42,294.0118153960211,None,1,1,294.0118153960211,None,You did not lose $0.20!,15.0,5,33,0.3499999999999999,54.761904761904766,0.23183973682740622,[],49.99999999999999,33,3,None,,0.2333041349775158,0.2333041349775158,Adjusting RT...,,019,Scanner,2,2019_Aug_31_1513,MID,3.1.5,59.81797044079377,
LgPun,2000,0,42,42,42,,296.0456801929977,None,2000,298.0794380810112,None,None,298.0794380810112,None,1.6500000000000001,43,300.11175016104244,None,1,1,300.11175016104244,None,You did not lose $5.00!,15.0,4,34,0.3499999999999999,55.81395348837209,0.23194562900122642,[1],49.99999999999999,33,3,None,,0.23438114899909124,0.23438114899909124,,,019,Scanner,2,2019_Aug_31_1513,MID,3.1.5,59.81797044079377,
LgPun,1500,0,43,43,43,,302.14545336703304,None,1500,304.1794672230026,None,None,304.1794672230026,None,1.6500000000000001,44,305.7121508780401,None,1,1,305.7121508780401,None,You did not lose $5.00!,15.0,4,35,0.3499999999999999,56.81818181818182,0.2316327266418375,"[1, 1]",49.99999999999999,33,3,None,,0.22412307001650333,0.22412307001650333,,,019,Scanner,2,2019_Aug_31_1513,MID,3.1.5,59.81797044079377,
SmallReward,1500,0,44,44,44,,307.7622462300351,None,1500,309.7964541600086,None,None,309.7964541600086,None,1.6500000000000001,45,311.3462634740281,None,1,1,311.3462634740281,None,You won $0.20!,15.2,2,36,0.31999999999999995,57.77777777777777,0.2341431055773193,[],83.33333333333333,36,3,None,,0.2969025789643638,0.2969025789643638,Adjusting RT...,,019,Scanner,2,2019_Aug_31_1513,MID,3.1.5,59.81797044079377,
Triangle,4000,0,45,45,45,,313.37953225401,None,4000,315.41379597602645,None,1,315.41379597602645,None,1.6800000000000002,46,319.44724008004414,None,1,1,319.44724008004414,None,You did not win or lose anything!,15.2,3,36,0.31999999999999995,58.69565217391305,0.22787517996254825,[],83.33333333333333,36,3,None,,0.06490911397850141,0.06490911397850141,,3.839456000016071,019,Scanner,2,2019_Aug_31_1513,MID,3.1.5,59.81797044079377,
LgReward,1500,0,46,46,46,,321.4971554680378,None,1500,323.5311426970293,None,None,323.5311426970293,None,1.6800000000000002,47,325.0637783629936,None,1,1,325.0637783629936,None,You won $5.00!,20.2,1,37,0.31999999999999995,59.57446808510638,0.22846798485677158,[1],83.33333333333333,36,3,None,,0.24447371700080112,0.24447371700080112,,,019,Scanner,2,2019_Aug_31_1513,MID,3.1.5,59.81797044079377,
SmallReward,1500,0,47,47,47,,327.11749954300467,None,1500,329.14762017299654,None,None,329.14762017299654,None,1.6800000000000002,48,330.69784015999176,None,1,1,330.69784015999176,None,You won $0.20!,20.4,2,38,0.31999999999999995,60.416666666666664,0.2292936016195293,"[1, 1]",83.33333333333333,36,3,None,,0.2524108709767461,0.2524108709767461,,,019,Scanner,2,2019_Aug_31_1513,MID,3.1.5,59.81797044079377,
LgReward,1500,0,48,48,48,,332.7479458610178,None,1500,334.7816972149885,None,None,334.7816972149885,None,1.6800000000000002,49,336.34837930399226,None,1,1,336.34837930399226,None,You won $5.00!,25.4,1,39,0.26999999999999996,61.224489795918366,0.23017945163301193,[],100.0,39,3,None,,0.2558691020240076,0.2558691020240076,Adjusting RT...,,019,Scanner,2,2019_Aug_31_1513,MID,3.1.5,59.81797044079377,
LgPun,1500,0,49,49,49,,338.38170709001133,None,1500,340.41568742803065,None,None,340.41568742803065,None,1.73,50,341.94886238203617,None,None,0,341.94886238203617,None,You lost $5.00!,20.4,4,40,0.26999999999999996,60.0,0.23017945163301193,[0],100.0,39,3,1,-0.0020654320251196623,0.2679345679748803,,,,019,Scanner,2,2019_Aug_31_1513,MID,3.1.5,59.81797044079377,
,,,,,,,,,,,,,,,,,,,,,,,,,,,,,,,,,,,,,,,,019,Scanner,2,2019_Aug_31_1513,MID,3.1.5,59.81797044079377,
