Condition,FixationDur,trials.thisRepN,trials.thisTrialN,trials.thisN,trials.thisIndex,TrialOrder,cueImage.started,cueImage.stopped,FixationDur,fixation.started,fixation.stopped,fixationResp.keys,fixationResp.started,fixationResp.stopped,feedbackDur,Trial counter,Target.started,Target.stopped,probeResp.keys,probeResp.corr,probeResp.rt,probeResp.started,probeResp.stopped,msg,TrackEarnings,TrialType,NonNeutralTrialsNum,probeDur,percentacc_total,meanrt,UserAcc,Acc,AdjTrial,AdjTrialInc,feedback_resp.keys,OverallRT,feedback_resp.rt,AdjRTmsg,fixationResp.rt,participant,prac_or_scan,run,date,expName,psychopyVersion,frameRate,
Triangle,2000,0,0,0,0,TimeVersion9.csv,32.01166012999602,None,2000,34.03674569900613,None,None,34.03674569900613,None,1.62,1,36.07845018198714,None,1,1,0.33441604499239475,36.07845018198714,None,You did not win or lose anything!,0,3,0,0.38,100.0,0.33441604499239475,[],0,0,3,None,0.33441604499239475,,,,020,Scanner,2,2019_Sep_02_1113,MID,3.1.5,59.93777510752064,
Triangle,1500,0,1,1,1,,38.12776137597393,None,1500,40.15459994401317,None,None,40.15459994401317,None,1.62,2,41.69489732402144,None,None,0,,41.69489732402144,None,You did not win or lose anything!,0,3,0,0.38,50.0,0.33441604499239475,[],0,0,3,1,0.4096268010279164,0.029626801027916372,,,020,Scanner,2,2019_Sep_02_1113,MID,3.1.5,59.93777510752064,
LgPun,2500,0,2,2,2,,43.74558561696904,None,2500,45.77194717997918,None,None,45.77194717997918,None,1.62,3,48.31222767196596,None,1,1,0.26361514296149835,48.31222767196596,None,You did not lose $5.00!,0,4,1,0.38,66.66666666666666,0.29901559397694655,[1],0,0,3,None,0.26361514296149835,,,,020,Scanner,2,2019_Sep_02_1113,MID,3.1.5,59.93777510752064,
Triangle,1500,0,3,3,3,,50.36281968001276,None,1500,52.38993234396912,None,None,52.38993234396912,None,1.62,4,53.929042770003434,None,None,0,,53.929042770003434,None,You did not win or lose anything!,0,3,1,0.38,50.0,0.29901559397694655,[1],0,0,3,1,0.36936413001501933,-0.010635869984980673,,,020,Scanner,2,2019_Sep_02_1113,MID,3.1.5,59.93777510752064,
LgReward,1500,0,4,4,4,,55.99043588299537,None,1500,58.02280375198461,None,None,58.02280375198461,None,1.62,5,59.57368566899095,None,None,0,,59.57368566899095,None,You did not win $5.00!,0,1,2,0.38,40.0,0.29901559397694655,"[1, 0]",0,0,3,None,0.36936413001501933,,,,020,Scanner,2,2019_Sep_02_1113,MID,3.1.5,59.93777510752064,
SmallPun,1500,0,5,5,5,,61.613067505008075,None,1500,63.64059385797009,None,None,63.64059385797009,None,1.62,6,65.18062308098888,None,1,1,0.2783443540101871,65.18062308098888,None,You did not lose $0.20!,0,5,3,0.36,50.0,0.2921251806546934,[],66.66666666666666,3,3,None,0.2783443540101871,,Adjusting RT...,,020,Scanner,2,2019_Sep_02_1113,MID,3.1.5,59.93777510752064,
LgPun,4000,0,6,6,6,,67.23000088101253,None,4000,69.25849340198329,None,None,69.25849340198329,None,1.6400000000000001,7,73.2923367950134,None,1,1,0.28951037902152166,73.2923367950134,None,You did not lose $5.00!,0,4,4,0.36,57.14285714285714,0.29147148024640046,[1],66.66666666666666,3,3,None,0.28951037902152166,,,,020,Scanner,2,2019_Sep_02_1113,MID,3.1.5,59.93777510752064,
Triangle,3500,0,7,7,7,,75.34664997900836,None,3500,77.37577147001866,None,None,77.37577147001866,None,1.6400000000000001,8,80.90984899800969,None,1,1,0.2571043139905669,80.90984899800969,None,You did not win or lose anything!,0,3,4,0.36,62.5,0.2845980469952337,[1],66.66666666666666,3,3,None,0.2571043139905669,,,,020,Scanner,2,2019_Sep_02_1113,MID,3.1.5,59.93777510752064,
SmallReward,2500,0,8,8,8,,82.96456299501006,None,2500,84.99428325501503,None,None,84.99428325501503,None,1.6400000000000001,9,87.54400726599852,None,1,1,0.2939290680224076,87.54400726599852,None,You won $0.20!,0.2,2,5,0.36,66.66666666666666,0.2861532171664294,"[1, 1]",66.66666666666666,3,3,None,0.2939290680224076,,,,020,Scanner,2,2019_Sep_02_1113,MID,3.1.5,59.93777510752064,
LgPun,2000,0,9,9,9,,89.5820664789644,None,2000,91.61102729500271,None,None,91.61102729500271,None,1.6400000000000001,10,93.64452084200457,None,1,1,0.2654530470026657,93.64452084200457,None,You did not lose $5.00!,0.2,4,6,0.32999999999999996,70.0,0.28319605000017745,[],83.33333333333333,6,3,None,0.2654530470026657,,Adjusting RT...,,020,Scanner,2,2019_Sep_02_1113,MID,3.1.5,59.93777510752064,
SmallPun,1500,0,10,10,10,,95.69864463497652,None,1500,97.72849468002096,None,None,97.72849468002096,None,1.67,11,99.2618840939831,None,None,0,,99.2618840939831,None,You lost $0.20!,0.0,5,7,0.32999999999999996,63.63636363636363,0.28319605000017745,[0],83.33333333333333,6,3,1,0.6820721499808132,0.35207214998081326,,,020,Scanner,2,2019_Sep_02_1113,MID,3.1.5,59.93777510752064,
SmallReward,3000,0,11,11,11,,101.31203528802143,None,3000,103.34644498396665,None,None,103.34644498396665,None,1.67,12,106.39599537296453,None,None,0,,106.39599537296453,None,You did not win $0.20!,0.0,2,8,0.32999999999999996,58.333333333333336,0.28319605000017745,"[0, 0]",83.33333333333333,6,3,1,0.3465021540015004,0.016502154001500458,,,020,Scanner,2,2019_Sep_02_1113,MID,3.1.5,59.93777510752064,
LgPun,1500,0,12,12,12,,108.43291962199146,None,1500,110.46355203300482,None,None,110.46355203300482,None,1.67,13,111.99739107198548,None,None,0,,111.99739107198548,None,You lost $5.00!,-5.0,4,9,0.35,53.84615384615385,0.28319605000017745,[],50.0,9,3,1,0.4108028789865784,0.060802878986578435,Adjusting RT...,,020,Scanner,2,2019_Sep_02_1113,MID,3.1.5,59.93777510752064,
SmallReward,1500,0,13,13,13,,114.04672115301946,None,1500,116.08134804398287,None,None,116.08134804398287,None,1.65,14,117.63091165496735,None,1,1,0.2310300570097752,117.63091165496735,None,You won $0.20!,-4.8,2,10,0.35,57.14285714285714,0.27667530087637715,[1],50.0,9,3,None,0.2310300570097752,,,,020,Scanner,2,2019_Sep_02_1113,MID,3.1.5,59.93777510752064,
SmallReward,2000,0,14,14,14,,119.68142393801827,None,2000,121.71582235198002,None,None,121.71582235198002,None,1.65,15,123.76490084500983,None,None,0,,123.76490084500983,None,You did not win $0.20!,-4.8,2,11,0.35,53.333333333333336,0.27667530087637715,"[1, 0]",50.0,9,3,None,0.2310300570097752,,,,020,Scanner,2,2019_Sep_02_1113,MID,3.1.5,59.93777510752064,
LgPun,2000,0,15,15,15,,125.80043051898247,None,2000,127.83268359699287,None,None,127.83268359699287,None,1.65,16,129.86600293498486,None,1,1,0.2538766789948568,129.86600293498486,None,You did not lose $5.00!,-4.8,4,12,0.38999999999999996,56.25,0.27414212066731936,[],33.33333333333333,12,3,None,0.2538766789948568,,Adjusting RT...,,020,Scanner,2,2019_Sep_02_1113,MID,3.1.5,59.93777510752064,
Triangle,2500,0,16,16,16,,131.90075072902255,None,2500,133.93320746801328,None,None,133.93320746801328,None,1.61,17,136.4662771319854,None,1,1,0.2286746590398252,136.4662771319854,None,You did not win or lose anything!,-4.8,3,12,0.38999999999999996,58.82352941176471,0.26959537450456994,[],33.33333333333333,12,3,None,0.2286746590398252,,,,020,Scanner,2,2019_Sep_02_1113,MID,3.1.5,59.93777510752064,
LgPun,1500,0,17,17,17,,138.50096670602215,None,1500,140.53482764802175,None,None,140.53482764802175,None,1.61,18,142.067286475969,None,1,1,0.3185257980367169,142.067286475969,None,You did not lose $5.00!,-4.8,4,13,0.38999999999999996,61.111111111111114,0.2740435948256742,[1],33.33333333333333,12,3,None,0.3185257980367169,,,,020,Scanner,2,2019_Sep_02_1113,MID,3.1.5,59.93777510752064,
LgReward,3500,0,18,18,18,,144.11781753698597,None,3500,146.15229410800384,None,1,146.15229410800384,None,1.61,19,149.7015900670085,None,1,1,0.25837090896675363,149.7015900670085,None,You won $5.00!,0.20000000000000018,1,14,0.38999999999999996,63.1578947368421,0.27273753767076414,"[1, 1]",33.33333333333333,12,3,None,0.25837090896675363,,,2.8426956640323624,020,Scanner,2,2019_Sep_02_1113,MID,3.1.5,59.93777510752064,
LgReward,1500,0,19,19,19,,151.75217071099905,None,1500,153.78563444700558,None,None,153.78563444700558,None,1.61,20,155.33569627796533,None,None,0,,155.33569627796533,None,You did not win $5.00!,0.20000000000000018,1,15,0.36999999999999994,60.0,0.27273753767076414,[],66.66666666666666,15,3,1,0.6099419739958829,0.23994197399588302,Adjusting RT...,,020,Scanner,2,2019_Sep_02_1113,MID,3.1.5,59.93777510752064,
LgPun,3000,0,20,20,20,,157.36934596201172,None,3000,159.40337137697497,None,1,159.40337137697497,None,1.6300000000000001,21,162.43611831997987,None,1,1,0.32885644398629665,162.43611831997987,None,You did not lose $5.00!,0.20000000000000018,4,16,0.36999999999999994,61.904761904761905,0.2770543766181128,[1],66.66666666666666,15,3,None,0.32885644398629665,,,2.8446042700088583,020,Scanner,2,2019_Sep_02_1113,MID,3.1.5,59.93777510752064,
SmallPun,2000,0,21,21,21,,164.46900645399,None,2000,166.50353889499092,None,None,166.50353889499092,None,1.6300000000000001,22,168.53669727197848,None,None,0,,168.53669727197848,None,You lost $0.20!,1.6653345369377348e-16,5,17,0.36999999999999994,59.09090909090909,0.2770543766181128,"[1, 0]",66.66666666666666,15,3,1,0.5664013680117204,0.19640136801172048,,,020,Scanner,2,2019_Sep_02_1113,MID,3.1.5,59.93777510752064,
SmallReward,3500,0,22,22,22,,170.58709849399747,None,3500,172.62075355299748,None,None,172.62075355299748,None,1.6300000000000001,23,176.17071531299734,None,1,1,0.3001355560263619,176.17071531299734,None,You won $0.20!,0.20000000000000018,2,18,0.3499999999999999,60.86956521739131,0.2787030322901306,[],66.66666666666666,18,3,None,0.3001355560263619,,Adjusting RT...,,020,Scanner,2,2019_Sep_02_1113,MID,3.1.5,59.93777510752064,
LgReward,2500,0,23,23,23,,178.22018735297024,None,2500,180.2542280149646,None,None,180.2542280149646,None,1.6500000000000001,24,182.8045445929747,None,1,1,0.2652859580121003,182.8045445929747,None,You won $5.00!,5.2,1,19,0.3499999999999999,62.5,0.27780856067159526,[1],66.66666666666666,18,3,None,0.2652859580121003,,,,020,Scanner,2,2019_Sep_02_1113,MID,3.1.5,59.93777510752064,
SmallReward,4000,0,24,24,24,,184.85444280697266,None,4000,186.88788119598757,None,None,186.88788119598757,None,1.6500000000000001,25,190.9214717230061,None,None,0,,190.9214717230061,None,You did not win $0.20!,5.2,2,20,0.3499999999999999,60.0,0.27780856067159526,"[1, 0]",66.66666666666666,18,3,1,0.3525617249775677,0.002561724977567792,,,020,Scanner,2,2019_Sep_02_1113,MID,3.1.5,59.93777510752064,
SmallPun,4000,0,25,25,25,,192.9545174019877,None,4000,194.98873017297592,None,None,194.98873017297592,None,1.6500000000000001,26,199.02172656997573,None,1,1,0.2732529820059426,199.02172656997573,None,You did not lose $0.20!,5.2,5,21,0.3299999999999999,61.53846153846154,0.27752383700499195,[],66.66666666666666,21,3,None,0.2732529820059426,,Adjusting RT...,,020,Scanner,2,2019_Sep_02_1113,MID,3.1.5,59.93777510752064,
LgReward,2000,0,26,26,26,,201.07195146300364,None,2000,203.10624595097033,None,None,203.10624595097033,None,1.6700000000000002,27,205.15520079701673,None,None,0,,205.15520079701673,None,You did not win $5.00!,5.2,1,22,0.3299999999999999,59.25925925925925,0.27752383700499195,[0],66.66666666666666,21,3,1,0.325308443030808,-0.004691556969191879,,,020,Scanner,2,2019_Sep_02_1113,MID,3.1.5,59.93777510752064,
LgReward,3000,0,27,27,27,,207.205426874978,None,3000,209.23926016897894,None,None,209.23926016897894,None,1.6700000000000002,28,212.2900371410069,None,None,0,,212.2900371410069,None,You did not win $5.00!,5.2,1,23,0.3299999999999999,57.14285714285714,0.27752383700499195,"[0, 0]",66.66666666666666,21,3,1,0.3209640019759535,-0.009035998024046421,,,020,Scanner,2,2019_Sep_02_1113,MID,3.1.5,59.93777510752064,
Triangle,4000,0,28,28,28,,214.32308699999703,None,4000,216.35726066597272,None,None,216.35726066597272,None,1.6700000000000002,29,220.3893913530046,None,1,1,0.260583916970063,220.3893913530046,None,You did not win or lose anything!,5.2,3,23,0.3299999999999999,58.620689655172406,0.27652737112058434,"[0, 0]",66.66666666666666,21,3,None,0.260583916970063,,,,020,Scanner,2,2019_Sep_02_1113,MID,3.1.5,59.93777510752064,
LgPun,1500,0,29,29,29,,222.44034475000808,None,1500,224.4740668599843,None,None,224.4740668599843,None,1.6700000000000002,30,226.0079292440205,None,None,0,,226.0079292440205,None,You lost $5.00!,0.20000000000000018,4,24,0.3699999999999999,56.666666666666664,0.27652737112058434,[],33.33333333333333,24,3,1,0.5916647440218366,0.22166474402183667,Adjusting RT...,,020,Scanner,2,2019_Sep_02_1113,MID,3.1.5,59.93777510752064,
SmallReward,1500,0,30,30,30,,228.05735288199503,None,1500,230.0914503270178,None,1,230.0914503270178,None,1.6300000000000001,31,231.63035809696885,None,1,1,0.2476109090493992,231.63035809696885,None,You won $0.20!,0.4000000000000002,2,25,0.3699999999999999,58.06451612903226,0.2749209010055185,[1],33.33333333333333,24,3,None,0.2476109090493992,,,0.3464374369941652,020,Scanner,2,2019_Sep_02_1113,MID,3.1.5,59.93777510752064,
LgReward,1500,0,31,31,31,,233.69067274499685,None,1500,235.72520317597082,None,None,235.72520317597082,None,1.6300000000000001,32,237.274782204011,None,None,0,,237.274782204011,None,You did not win $5.00!,0.4000000000000002,1,26,0.3699999999999999,56.25,0.2749209010055185,"[1, 0]",33.33333333333333,24,3,1,0.49154153699520964,0.12154153699520975,,,020,Scanner,2,2019_Sep_02_1113,MID,3.1.5,59.93777510752064,
LgReward,4000,0,32,32,32,,239.3246266230126,None,4000,241.35876885300968,None,None,241.35876885300968,None,1.6300000000000001,33,245.40873870701762,None,1,1,0.2332873559789732,245.40873870701762,None,You won $5.00!,5.4,1,27,0.40999999999999986,57.57575757575758,0.2727296617935951,[],33.33333333333333,27,3,None,0.2332873559789732,,Adjusting RT...,,020,Scanner,2,2019_Sep_02_1113,MID,3.1.5,59.93777510752064,
SmallPun,3500,0,33,33,33,,247.44183323998004,None,3500,249.46481969597517,None,None,249.46481969597517,None,1.59,34,253.008617029991,None,1,1,0.29035012295935303,253.008617029991,None,You did not lose $0.20!,5.4,5,28,0.40999999999999986,58.82352941176471,0.273610684851883,[1],33.33333333333333,27,3,None,0.29035012295935303,,,,020,Scanner,2,2019_Sep_02_1113,MID,3.1.5,59.93777510752064,
Triangle,1500,0,34,34,34,,255.05876202898799,None,1500,257.08283562096767,None,None,257.08283562096767,None,1.59,35,258.6253904320183,None,None,0,,258.6253904320183,None,You did not win or lose anything!,5.4,3,28,0.40999999999999986,57.14285714285714,0.273610684851883,[1],33.33333333333333,27,3,None,0.29035012295935303,,,,020,Scanner,2,2019_Sep_02_1113,MID,3.1.5,59.93777510752064,
Triangle,2000,0,35,35,35,,260.676152059983,None,2000,262.6999048930011,None,None,262.6999048930011,None,1.59,36,264.7424987879931,None,1,1,0.278470839955844,264.7424987879931,None,You did not win or lose anything!,5.4,3,28,0.40999999999999986,58.333333333333336,0.27384212080921444,[1],33.33333333333333,27,3,None,0.278470839955844,,,,020,Scanner,2,2019_Sep_02_1113,MID,3.1.5,59.93777510752064,
SmallPun,2000,0,36,36,36,,266.7932453759713,None,2000,268.8179598369752,None,None,268.8179598369752,None,1.59,37,270.8596100870054,None,None,0,,270.8596100870054,None,You lost $0.20!,5.2,5,29,0.40999999999999986,56.75675675675676,0.27384212080921444,"[1, 0]",33.33333333333333,27,3,None,0.278470839955844,,,,020,Scanner,2,2019_Sep_02_1113,MID,3.1.5,59.93777510752064,
LgPun,1500,0,37,37,37,,272.9105440530111,None,1500,274.93516030401224,None,None,274.93516030401224,None,1.59,38,276.47700287098996,None,None,0,,276.47700287098996,None,You lost $5.00!,0.20000000000000018,4,30,0.4299999999999999,55.26315789473685,0.27384212080921444,[],49.99999999999999,30,3,1,0.5127218840131536,0.08272188401315361,Adjusting RT...,,020,Scanner,2,2019_Sep_02_1113,MID,3.1.5,59.93777510752064,
LgPun,3500,0,38,38,38,,278.52686310600257,None,3500,280.5613896040013,None,None,280.5613896040013,None,1.57,39,284.09419839200564,None,1,1,0.2647534440038726,284.09419839200564,None,You did not lose $5.00!,0.20000000000000018,4,31,0.4299999999999999,56.41025641025641,0.27342899913624436,[1],49.99999999999999,30,3,None,0.2647534440038726,,,,020,Scanner,2,2019_Sep_02_1113,MID,3.1.5,59.93777510752064,
SmallPun,3000,0,39,39,39,,286.1439616869902,None,3000,288.17033780697966,None,None,288.17033780697966,None,1.57,40,291.20513477700297,None,None,0,,291.20513477700297,None,You lost $0.20!,1.6653345369377348e-16,5,32,0.4299999999999999,55.00000000000001,0.27342899913624436,"[1, 0]",49.99999999999999,30,3,1,0.5198359210113994,0.08983592101139948,,,020,Scanner,2,2019_Sep_02_1113,MID,3.1.5,59.93777510752064,
LgReward,2000,0,40,40,40,,293.2783039640053,None,2000,295.3039503499749,None,None,295.3039503499749,None,1.57,41,297.3544593700208,None,1,1,0.26946199097437784,297.3544593700208,None,You won $5.00!,5.0,1,33,0.4499999999999999,56.09756097560976,0.273256520520511,[],49.99999999999999,33,3,None,0.26946199097437784,,Adjusting RT...,,020,Scanner,2,2019_Sep_02_1113,MID,3.1.5,59.93777510752064,
SmallPun,1500,0,41,41,41,,299.3948230770184,None,1500,301.42203983000945,None,None,301.42203983000945,None,1.55,42,302.9561493389774,None,None,0,,302.9561493389774,None,You lost $0.20!,4.8,5,34,0.4499999999999999,54.761904761904766,0.273256520520511,[0],49.99999999999999,33,3,1,0.5165810730424709,0.06658107304247096,,,020,Scanner,2,2019_Sep_02_1113,MID,3.1.5,59.93777510752064,
SmallReward,1500,0,42,42,42,,305.00658938800916,None,1500,307.03925868996885,None,None,307.03925868996885,None,1.55,43,308.58915387198795,None,1,1,0.3428046189947054,308.58915387198795,None,You won $0.20!,5.0,2,35,0.4499999999999999,55.81395348837209,0.2761543579569358,"[0, 1]",49.99999999999999,33,3,None,0.3428046189947054,,,,020,Scanner,2,2019_Sep_02_1113,MID,3.1.5,59.93777510752064,
SmallReward,1500,0,43,43,43,,310.6390837790095,None,1500,312.65649955300614,None,None,312.65649955300614,None,1.55,44,314.2085948669701,None,None,0,,314.2085948669701,None,You did not win $0.20!,5.0,2,36,0.4699999999999999,54.54545454545454,0.2761543579569358,[],49.99999999999999,36,3,1,0.5578052759799175,0.0878052759799175,Adjusting RT...,,020,Scanner,2,2019_Sep_02_1113,MID,3.1.5,59.93777510752064,
LgReward,1500,0,44,44,44,,316.275246714009,None,1500,318.30701129999943,None,None,318.30701129999943,None,1.53,45,319.85715109598823,None,1,1,0.3716809279867448,319.85715109598823,None,You won $5.00!,10.0,1,37,0.4699999999999999,55.55555555555556,0.27997542075812815,[1],49.99999999999999,36,3,None,0.3716809279867448,,,,020,Scanner,2,2019_Sep_02_1113,MID,3.1.5,59.93777510752064,
Triangle,1500,0,45,45,45,,321.89684545097407,None,1500,323.92473577096825,None,None,323.92473577096825,None,1.53,46,325.4587506829994,None,None,0,,325.4587506829994,None,You did not win or lose anything!,10.0,3,37,0.4699999999999999,54.347826086956516,0.27997542075812815,[1],49.99999999999999,36,3,1,0.49546087303198866,0.02546087303198874,,,020,Scanner,2,2019_Sep_02_1113,MID,3.1.5,59.93777510752064,
SmallPun,1500,0,46,46,46,,327.49748358601937,None,1500,329.52587271196535,None,None,329.52587271196535,None,1.53,47,331.0587506640004,None,1,1,0.27311507397098467,331.0587506640004,None,You did not lose $0.20!,10.0,5,38,0.4699999999999999,55.319148936170215,0.27971156126631497,"[1, 1]",49.99999999999999,36,3,None,0.27311507397098467,,,,020,Scanner,2,2019_Sep_02_1113,MID,3.1.5,59.93777510752064,
SmallPun,2500,0,47,47,47,,333.09748497599503,None,2500,335.12711751501774,None,None,335.12711751501774,None,1.53,48,337.65985734498827,None,1,1,0.21997950901277363,337.65985734498827,None,You did not lose $0.20!,10.0,5,39,0.4499999999999999,56.25,0.2774992630347023,[],66.66666666666666,39,3,None,0.21997950901277363,,Adjusting RT...,,020,Scanner,2,2019_Sep_02_1113,MID,3.1.5,59.93777510752064,
Triangle,3000,0,48,48,48,,339.69748093397357,None,3000,341.7269805929973,None,None,341.7269805929973,None,1.55,49,344.7600705929799,None,1,1,0.2659090569941327,344.7600705929799,None,You did not win or lose anything!,10.0,3,39,0.4499999999999999,57.14285714285714,0.277085327104682,[],66.66666666666666,39,3,None,0.2659090569941327,,,,020,Scanner,2,2019_Sep_02_1113,MID,3.1.5,59.93777510752064,
SmallReward,2000,0,49,49,49,,346.81098435696913,None,2000,348.84431432996644,None,None,348.84431432996644,None,1.55,50,350.89483121898957,None,1,1,0.3839992599678226,350.89483121898957,None,You won $0.20!,10.2,2,40,0.4499999999999999,57.99999999999999,0.2807720144447903,[1],66.66666666666666,39,3,None,0.3839992599678226,,,,020,Scanner,2,2019_Sep_02_1113,MID,3.1.5,59.93777510752064,
,,,,,,,,,,,,,,,,,,,,,,,,,,,,,,,,,,,,,,,,020,Scanner,2,2019_Sep_02_1113,MID,3.1.5,59.93777510752064,
