Condition,FixationDur,trials.thisRepN,trials.thisTrialN,trials.thisN,trials.thisIndex,TrialOrder,cueImage.started,cueImage.stopped,FixationDur,fixation.started,fixation.stopped,fixationResp.keys,fixationResp.started,fixationResp.stopped,feedbackDur,Trial counter,Target.started,Target.stopped,probeResp.keys,probeResp.corr,probeResp.started,probeResp.stopped,msg,TrackEarnings,TrialType,NonNeutralTrialsNum,probeDur,percentacc_total,meanrt,UserAcc,Acc,AdjTrial,AdjTrialInc,feedback_resp.keys,OverallRT,feedback_resp.rt,AdjRTmsg,probeResp.rt,participant,prac_or_scan,run,date,expName,psychopyVersion,frameRate,
LgReward,1500,0,0,0,0,TimeVersion1.csv,36.20115313195856,None,1500,38.239620262989774,None,None,38.239620262989774,None,1.6,1,39.81293294596253,None,None,0,39.81293294596253,None,You did not win $5.00!,0,1,1,0.39999999999999997,0.0,nan,[0],0,0,3,None,,,,,024,Scanner,2,2019_Aug_30_0929,MID,3.1.5,23.98761114505321,
Triangle,3500,0,1,1,1,,41.85946848400636,None,3500,43.87161520001246,None,None,43.87161520001246,None,1.6,2,47.42555954999989,None,None,0,47.42555954999989,None,You did not win or lose anything!,0,3,1,0.39999999999999997,0.0,nan,[0],0,0,3,1,0.40327475299127397,0.003274752991273999,,,024,Scanner,2,2019_Aug_30_0929,MID,3.1.5,23.98761114505321,
LgPun,1500,0,2,2,2,,49.44466407899745,None,1500,51.45715552801266,None,None,51.45715552801266,None,1.6,3,53.00751331099309,None,None,0,53.00751331099309,None,You lost $5.00!,-5,4,2,0.39999999999999997,0.0,nan,"[0, 0]",0,0,3,1,0.40162757001817223,0.001627570018172264,,,024,Scanner,2,2019_Aug_30_0929,MID,3.1.5,23.98761114505321,
SmallReward,3500,0,3,3,3,,55.026892210007645,None,3500,57.04073760099709,None,None,57.04073760099709,None,1.6,4,60.60744984599296,None,None,0,60.60744984599296,None,You did not win $0.20!,-5,2,3,0.47,0.0,nan,[],0.0,3,3,None,0.40162757001817223,,Adjusting RT...,,024,Scanner,2,2019_Aug_30_0929,MID,3.1.5,23.98761114505321,
LgReward,1500,0,4,4,4,,62.65102373500122,None,1500,64.65737441496458,None,None,64.65737441496458,None,1.53,5,66.22449449199485,None,1,1,66.22449449199485,None,You won $5.00!,0,1,4,0.47,20.0,0.31078802898991853,[1],0.0,3,3,None,0.31078802898991853,,,0.31078802898991853,024,Scanner,2,2019_Aug_30_0929,MID,3.1.5,23.98761114505321,
LgPun,2500,0,5,5,5,,68.27762350201374,None,2500,70.29268507601228,None,None,70.29268507601228,None,1.53,6,72.84291991096688,None,1,1,72.84291991096688,None,You did not lose $5.00!,0,4,5,0.47,33.33333333333333,0.3231407174898777,"[1, 1]",0.0,3,3,None,0.3354934059898369,,,0.3354934059898369,024,Scanner,2,2019_Aug_30_0929,MID,3.1.5,23.98761114505321,
LgReward,3500,0,6,6,6,,74.86137130396673,None,3500,76.87706368899671,None,None,76.87706368899671,None,1.53,7,80.43469090596773,None,1,1,80.43469090596773,None,You won $5.00!,5,1,6,0.49,42.857142857142854,0.3376127543160692,[],50.0,6,3,None,0.3665568279684521,,Adjusting RT...,0.3665568279684521,024,Scanner,2,2019_Aug_30_0929,MID,3.1.5,23.98761114505321,
LgPun,2000,0,7,7,7,,82.44421841297299,None,2000,84.46130637801252,None,None,84.46130637801252,None,1.51,8,86.51045487896772,None,1,1,86.51045487896772,None,You did not lose $5.00!,5,4,7,0.49,50.0,0.3449338169884868,[1],50.0,6,3,None,0.36689700500573963,,,0.36689700500573963,024,Scanner,2,2019_Aug_30_0929,MID,3.1.5,23.98761114505321,
Triangle,1500,0,8,8,8,,88.52726898097899,None,1500,90.54566178796813,None,None,90.54566178796813,None,1.51,9,92.09510187397245,None,1,1,92.09510187397245,None,You did not win or lose anything!,5,3,7,0.49,55.55555555555556,0.35157606679713355,[1],50.0,6,3,None,0.3781450660317205,,,0.3781450660317205,024,Scanner,2,2019_Aug_30_0929,MID,3.1.5,23.98761114505321,
SmallPun,4000,0,9,9,9,,94.15374543896178,None,4000,96.16394760896219,None,None,96.16394760896219,None,1.51,10,100.2140889170114,None,1,1,100.2140889170114,None,You did not lose $0.20!,5,5,8,0.49,60.0,0.34952426033366163,"[1, 1]",50.0,6,3,None,0.339265228016302,,,0.339265228016302,024,Scanner,2,2019_Aug_30_0929,MID,3.1.5,23.98761114505321,
Triangle,2000,0,10,10,10,,102.27920196496416,None,2000,104.29786680301186,None,None,104.29786680301186,None,1.51,11,106.3466625889996,None,None,0,106.3466625889996,None,You did not win or lose anything!,5,3,8,0.49,54.54545454545454,0.34952426033366163,"[1, 1]",50.0,6,3,1,0.5057653110218234,0.015765311021823436,,,024,Scanner,2,2019_Aug_30_0929,MID,3.1.5,23.98761114505321,
Triangle,3000,0,11,11,11,,108.40437348297564,None,3000,110.41505863401107,None,None,110.41505863401107,None,1.51,12,113.46537864697166,None,1,1,113.46537864697166,None,You did not win or lose anything!,5,3,8,0.49,58.333333333333336,0.3535889975693343,"[1, 1]",50.0,6,3,None,0.3779774209833704,,,0.3779774209833704,024,Scanner,2,2019_Aug_30_0929,MID,3.1.5,23.98761114505321,
SmallReward,3000,0,12,12,12,,115.52954847499495,None,3000,117.5497112100129,None,None,117.5497112100129,None,1.51,13,120.60131131496746,None,1,1,120.60131131496746,None,You won $0.20!,5.2,2,9,0.44,61.53846153846154,0.3605204444975243,[],100.0,9,3,None,0.4090405729948543,,Adjusting RT...,0.4090405729948543,024,Scanner,2,2019_Aug_30_0929,MID,3.1.5,23.98761114505321,
SmallPun,3000,0,13,13,13,,122.69681894296082,None,3000,124.71523537900066,None,None,124.71523537900066,None,1.56,14,127.7566691939719,None,None,0,127.7566691939719,None,You lost $0.20!,5.0,5,10,0.44,57.14285714285714,0.3605204444975243,[0],100.0,9,3,1,0.45073541498044506,0.010735414980445057,,,024,Scanner,2,2019_Aug_30_0929,MID,3.1.5,23.98761114505321,
LgReward,2000,0,14,14,14,,129.78007129597245,None,2000,131.8011664649821,None,None,131.8011664649821,None,1.56,15,133.852447148005,None,None,0,133.852447148005,None,You did not win $5.00!,5.0,1,11,0.44,53.333333333333336,0.3605204444975243,"[0, 0]",100.0,9,3,1,0.4803345209779218,0.040334520977921784,,,024,Scanner,2,2019_Aug_30_0929,MID,3.1.5,23.98761114505321,
SmallPun,2000,0,15,15,15,,135.905801469984,None,2000,137.91872086498188,None,None,137.91872086498188,None,1.56,16,139.96858464198885,None,None,0,139.96858464198885,None,You lost $0.20!,4.8,5,12,0.46,50.0,0.3605204444975243,[],50.0,12,3,1,0.4640421399753541,0.004042139975354075,Adjusting RT...,,024,Scanner,2,2019_Aug_30_0929,MID,3.1.5,23.98761114505321,
LgPun,3000,0,16,16,16,,141.98918586201034,None,3000,144.0026916989591,None,None,144.0026916989591,None,1.54,17,147.0529313319712,None,1,1,147.0529313319712,None,You did not lose $5.00!,4.8,4,13,0.46,52.94117647058824,0.35904870955790913,[1],50.0,12,3,None,0.3472748300409876,,,0.3472748300409876,024,Scanner,2,2019_Aug_30_0929,MID,3.1.5,23.98761114505321,
SmallPun,1500,0,17,17,17,,149.11432299599983,None,1500,151.12266984500457,None,None,151.12266984500457,None,1.54,18,152.67639494297327,None,None,0,152.67639494297327,None,You lost $0.20!,4.6,5,14,0.46,50.0,0.35904870955790913,"[1, 0]",50.0,12,3,1,0.46506394699914383,0.005063946999143809,,,024,Scanner,2,2019_Aug_30_0929,MID,3.1.5,23.98761114505321,
LgReward,3000,0,18,18,18,,154.7385743240011,None,3000,156.75479245895986,None,None,156.75479245895986,None,1.54,19,159.81055225298041,None,1,1,159.81055225298041,None,You won $5.00!,9.6,1,15,0.5,52.63157894736842,0.35982346649980174,[],33.33333333333333,15,3,None,0.3667962789768353,,Adjusting RT...,0.3667962789768353,024,Scanner,2,2019_Aug_30_0929,MID,3.1.5,23.98761114505321,
LgPun,4000,0,19,19,19,,161.86657525401097,None,4000,163.87342395901214,None,None,163.87342395901214,None,1.5,20,167.926280441985,None,1,1,167.926280441985,None,You did not lose $5.00!,9.6,4,16,0.5,55.00000000000001,0.36557258772452106,[1],33.33333333333333,15,3,None,0.4230637999717146,,,0.4230637999717146,024,Scanner,2,2019_Aug_30_0929,MID,3.1.5,23.98761114505321,
SmallReward,2500,0,20,20,20,,169.99066930398112,None,2500,172.0061181819765,None,None,172.0061181819765,None,1.5,21,174.5630751659628,None,1,1,174.5630751659628,None,You won $0.20!,9.799999999999999,2,17,0.5,57.14285714285714,0.3635505506633005,"[1, 1]",33.33333333333333,15,3,None,0.3413081429898739,,,0.3413081429898739,024,Scanner,2,2019_Aug_30_0929,MID,3.1.5,23.98761114505321,
LgPun,3500,0,21,21,21,,176.61599838000257,None,3500,178.6248039029888,None,None,178.6248039029888,None,1.5,22,182.1758338600048,None,1,1,182.1758338600048,None,You did not lose $5.00!,9.799999999999999,4,18,0.47,59.09090909090909,0.3604706858437007,[],83.33333333333333,18,3,None,0.32351230800850317,,Adjusting RT...,0.32351230800850317,024,Scanner,2,2019_Aug_30_0929,MID,3.1.5,23.98761114505321,
Triangle,1500,0,22,22,22,,184.24125546496361,None,1500,186.2577834399999,None,None,186.2577834399999,None,1.53,23,187.80763887200737,None,None,0,187.80763887200737,None,You did not win or lose anything!,9.799999999999999,3,18,0.47,56.52173913043478,0.3604706858437007,[],83.33333333333333,18,3,1,0.7194460199959576,0.2494460199959576,,,024,Scanner,2,2019_Aug_30_0929,MID,3.1.5,23.98761114505321,
LgReward,2500,0,23,23,23,,189.8245597789646,None,2500,191.8423062840011,None,None,191.8423062840011,None,1.53,24,194.39712048898218,None,1,1,194.39712048898218,None,You won $5.00!,14.799999999999999,1,19,0.47,58.333333333333336,0.35987916014190496,[1],83.33333333333333,18,3,None,0.3521893260185607,,,0.3521893260185607,024,Scanner,2,2019_Aug_30_0929,MID,3.1.5,23.98761114505321,
Triangle,1500,0,24,24,24,,196.408075239975,None,1500,198.41432210599305,None,None,198.41432210599305,None,1.53,25,199.9680584569578,None,None,0,199.9680584569578,None,You did not win or lose anything!,14.799999999999999,3,19,0.47,56.00000000000001,0.35987916014190496,[1],83.33333333333333,18,3,1,0.48071432000026104,0.010714320000261068,,,024,Scanner,2,2019_Aug_30_0929,MID,3.1.5,23.98761114505321,
Triangle,2000,0,25,25,25,,202.03352627897402,None,2000,204.04426761099603,None,None,204.04426761099603,None,1.53,26,206.09662376198685,None,1,1,206.09662376198685,None,You did not win or lose anything!,14.799999999999999,3,19,0.47,57.692307692307686,0.3602021892632668,[1],83.33333333333333,18,3,None,0.3647245969623327,,,0.3647245969623327,024,Scanner,2,2019_Aug_30_0929,MID,3.1.5,23.98761114505321,
LgReward,4000,0,26,26,26,,208.15835577098187,None,4000,210.17843422299484,None,None,210.17843422299484,None,1.53,27,214.22849296795903,None,1,1,214.22849296795903,None,You won $5.00!,19.799999999999997,1,20,0.47,59.25925925925925,0.3614307211864798,"[1, 1]",83.33333333333333,18,3,None,0.37985870003467426,,,0.37985870003467426,024,Scanner,2,2019_Aug_30_0929,MID,3.1.5,23.98761114505321,
Triangle,2500,0,27,27,27,,216.2431323530036,None,2500,218.2627169539919,None,None,218.2627169539919,None,1.53,28,220.80017741397023,None,1,1,220.80017741397023,None,You did not win or lose anything!,19.799999999999997,3,20,0.47,60.71428571428571,0.3619449609404375,"[1, 1]",83.33333333333333,18,3,None,0.37017279700376093,,,0.37017279700376093,024,Scanner,2,2019_Aug_30_0929,MID,3.1.5,23.98761114505321,
SmallPun,2500,0,28,28,28,,222.8261378929601,None,2500,224.84697686799336,None,None,224.84697686799336,None,1.53,29,227.3856184569886,None,None,0,227.3856184569886,None,You lost $0.20!,19.599999999999998,5,21,0.43999999999999995,58.620689655172406,0.3619449609404375,[],83.33333333333333,21,3,None,0.37017279700376093,,Adjusting RT...,,024,Scanner,2,2019_Aug_30_0929,MID,3.1.5,23.98761114505321,
SmallReward,2000,0,29,29,29,,229.45669625495793,None,2000,231.4639345050091,None,None,231.4639345050091,None,1.56,30,233.48347210499924,None,None,0,233.48347210499924,None,You did not win $0.20!,19.599999999999998,2,22,0.43999999999999995,56.666666666666664,0.3619449609404375,[0],83.33333333333333,21,3,None,0.37017279700376093,,,,024,Scanner,2,2019_Aug_30_0929,MID,3.1.5,23.98761114505321,
LgReward,2000,0,30,30,30,,235.54095446498832,None,2000,237.5477041369886,None,None,237.5477041369886,None,1.56,31,239.62145733996294,None,1,1,239.62145733996294,None,You won $5.00!,24.599999999999998,1,23,0.43999999999999995,58.06451612903226,0.36238635300024824,"[0, 1]",83.33333333333333,21,3,None,0.36989001801703125,,,0.36989001801703125,024,Scanner,2,2019_Aug_30_0929,MID,3.1.5,23.98761114505321,
SmallPun,2000,0,31,31,31,,241.66055129398592,None,2000,243.66864609497134,None,None,243.66864609497134,None,1.56,32,245.71967674797634,None,None,0,245.71967674797634,None,You lost $0.20!,24.4,5,24,0.45999999999999996,56.25,0.36238635300024824,[],49.99999999999999,24,3,1,0.472451673974283,0.01245167397428304,Adjusting RT...,,024,Scanner,2,2019_Aug_30_0929,MID,3.1.5,23.98761114505321,
SmallPun,1500,0,32,32,32,,247.74301577697042,None,1500,249.75044708000496,None,None,249.75044708000496,None,1.54,33,251.31540229800157,None,None,0,251.31540229800157,None,You lost $0.20!,24.2,5,25,0.45999999999999996,54.54545454545454,0.36238635300024824,[0],49.99999999999999,24,3,1,0.4764185100002214,0.01641851000022143,,,024,Scanner,2,2019_Aug_30_0929,MID,3.1.5,23.98761114505321,
SmallReward,1500,0,33,33,33,,253.36935883195838,None,1500,255.3840336209978,None,None,255.3840336209978,None,1.54,34,256.90059205901343,None,None,0,256.90059205901343,None,You did not win $0.20!,24.2,2,26,0.45999999999999996,52.94117647058824,0.36238635300024824,"[0, 0]",49.99999999999999,24,3,1,0.47041358202928674,0.010413582029286772,,,024,Scanner,2,2019_Aug_30_0929,MID,3.1.5,23.98761114505321,
SmallReward,1500,0,34,34,34,,258.95525775197893,None,1500,260.96796742797596,None,None,260.96796742797596,None,1.54,35,262.492585622007,None,None,0,262.492585622007,None,You did not win $0.20!,24.2,2,27,0.5,51.42857142857142,0.36238635300024824,[],16.666666666666664,27,3,1,0.5666751120006666,0.06667511200066656,Adjusting RT...,,024,Scanner,2,2019_Aug_30_0929,MID,3.1.5,23.98761114505321,
LgPun,1500,0,35,35,35,,264.5364630440017,None,1500,266.5502134799608,None,None,266.5502134799608,None,1.5,36,268.08871494297637,None,None,0,268.08871494297637,None,You lost $5.00!,19.2,4,28,0.5,50.0,0.36238635300024824,[0],16.666666666666664,27,3,1,0.5074773660162464,0.007477366016246378,,,024,Scanner,2,2019_Aug_30_0929,MID,3.1.5,23.98761114505321,
SmallReward,4000,0,36,36,36,,270.161312117998,None,4000,272.1692819959717,None,None,272.1692819959717,None,1.5,37,276.2358392300084,None,1,1,276.2358392300084,None,You won $0.20!,19.4,2,29,0.5,51.35135135135135,0.36544571110464047,"[0, 1]",16.666666666666664,27,3,None,0.42051415698369965,,,0.42051415698369965,024,Scanner,2,2019_Aug_30_0929,MID,3.1.5,23.98761114505321,
SmallPun,1500,0,37,37,37,,278.28739102697,None,1500,280.3028421829804,None,None,280.3028421829804,None,1.5,38,281.85394792997977,None,None,0,281.85394792997977,None,You lost $0.20!,19.2,5,30,0.5,50.0,0.36544571110464047,[],16.666666666666664,30,3,1,0.5221969070262276,0.022196907026227564,Adjusting RT...,,024,Scanner,2,2019_Aug_30_0929,MID,3.1.5,23.98761114505321,
SmallReward,2000,0,38,38,38,,283.9119961899705,None,2000,285.9217034049798,None,None,285.9217034049798,None,1.5,39,287.98850595299155,None,1,1,287.98850595299155,None,You won $0.20!,19.4,2,31,0.5,51.28205128205128,0.365665680199163,[1],16.666666666666664,30,3,None,0.3698450929950923,,,0.3698450929950923,024,Scanner,2,2019_Aug_30_0929,MID,3.1.5,23.98761114505321,
SmallPun,3500,0,39,39,39,,290.03762658999767,None,3500,292.0552135700127,None,None,292.0552135700127,None,1.5,40,295.6056980880094,None,None,0,295.6056980880094,None,You lost $0.20!,19.2,5,32,0.5,50.0,0.365665680199163,"[1, 0]",16.666666666666664,30,3,1,0.49720014695776626,-0.0027998530422337353,,,024,Scanner,2,2019_Aug_30_0929,MID,3.1.5,23.98761114505321,
Triangle,1500,0,40,40,40,,297.66290704195853,None,1500,299.6722990429844,None,None,299.6722990429844,None,1.5,41,301.2226542449789,None,None,0,301.2226542449789,None,You did not win or lose anything!,19.2,3,32,0.5,48.78048780487805,0.365665680199163,"[1, 0]",16.666666666666664,30,3,1,0.493238074996043,-0.006761925003957003,,,024,Scanner,2,2019_Aug_30_0929,MID,3.1.5,23.98761114505321,
SmallPun,1500,0,41,41,41,,303.28834338096203,None,1500,305.30709599296097,None,None,305.30709599296097,None,1.5,42,306.847264572978,None,1,1,306.847264572978,None,You did not lose $0.20!,19.2,5,33,0.5,50.0,0.36734713457103463,[],49.99999999999999,33,3,None,0.4009762220084667,,Adjusting RT...,0.4009762220084667,024,Scanner,2,2019_Aug_30_0929,MID,3.1.5,23.98761114505321,
LgPun,2000,0,42,42,42,,308.913523583964,None,2000,310.92383030900965,None,None,310.92383030900965,None,1.5,43,312.9748184939963,None,1,1,312.9748184939963,None,You did not lose $5.00!,19.2,4,34,0.5,51.162790697674424,0.36967390881777235,[1],49.99999999999999,33,3,None,0.41853616799926385,,,0.41853616799926385,024,Scanner,2,2019_Aug_30_0929,MID,3.1.5,23.98761114505321,
LgPun,1500,0,43,43,43,,315.0374026169884,None,1500,317.05851225100923,None,None,317.05851225100923,None,1.5,44,318.5987103939988,None,None,0,318.5987103939988,None,You lost $5.00!,14.2,4,35,0.5,50.0,0.36967390881777235,"[1, 0]",49.99999999999999,33,3,1,0.5127903450047597,0.012790345004759729,,,024,Scanner,2,2019_Aug_30_0929,MID,3.1.5,23.98761114505321,
SmallReward,1500,0,44,44,44,,320.66393988998607,None,1500,322.67602985695703,None,None,322.67602985695703,None,1.5,45,324.24255098501453,None,1,1,324.24255098501453,None,You won $0.20!,14.399999999999999,2,36,0.48,51.11111111111111,0.37111423482723616,[],66.66666666666666,36,3,None,0.4028014070354402,,Adjusting RT...,0.4028014070354402,024,Scanner,2,2019_Aug_30_0929,MID,3.1.5,23.98761114505321,
Triangle,4000,0,45,45,45,,326.28916925599333,None,4000,328.3097049469943,None,None,328.3097049469943,None,1.52,46,332.34915623796405,None,None,0,332.34915623796405,None,You did not win or lose anything!,14.399999999999999,3,36,0.48,50.0,0.37111423482723616,[],66.66666666666666,36,3,None,0.4028014070354402,,,,024,Scanner,2,2019_Aug_30_0929,MID,3.1.5,23.98761114505321,
LgReward,1500,0,46,46,46,,334.3728376379586,None,1500,336.3937153159641,None,None,336.3937153159641,None,1.52,47,337.94476010499056,None,None,0,337.94476010499056,None,You did not win $5.00!,14.399999999999999,1,37,0.48,48.93617021276596,0.37111423482723616,[0],66.66666666666666,36,3,1,0.4801063990057446,0.00010639900574460626,,,024,Scanner,2,2019_Aug_30_0929,MID,3.1.5,23.98761114505321,
SmallReward,1500,0,47,47,47,,339.95638698496623,None,1500,341.9617875699769,None,None,341.9617875699769,None,1.52,48,343.53069043398136,None,None,0,343.53069043398136,None,You did not win $0.20!,14.399999999999999,2,38,0.48,47.91666666666667,0.37111423482723616,"[0, 0]",66.66666666666666,36,3,1,0.48273843703325836,0.0027384370332583785,,,024,Scanner,2,2019_Aug_30_0929,MID,3.1.5,23.98761114505321,
LgReward,1500,0,48,48,48,,345.58430021198,None,1500,347.59604059398407,None,None,347.59604059398407,None,1.52,49,349.1507439269917,None,1,1,349.1507439269917,None,You won $5.00!,19.4,1,39,0.5,48.97959183673469,0.37113493650152424,[],49.99999999999999,39,3,None,0.37161107501015067,,Adjusting RT...,0.37161107501015067,024,Scanner,2,2019_Aug_30_0929,MID,3.1.5,23.98761114505321,
LgPun,1500,0,49,49,49,,351.1653965529986,None,1500,353.1796927509713,None,None,353.1796927509713,None,1.5,50,354.72868214797927,None,None,0,354.72868214797927,None,You lost $5.00!,14.399999999999999,4,40,0.5,48.0,0.37113493650152424,[0],49.99999999999999,39,3,1,0.5265389989945106,0.02653899899451062,,,024,Scanner,2,2019_Aug_30_0929,MID,3.1.5,23.98761114505321,
,,,,,,,,,,,,,,,,,,,,,,,,,,,,,,,,,,,,,,,024,Scanner,2,2019_Aug_30_0929,MID,3.1.5,23.98761114505321,
