Condition,FixationDur,trials.thisRepN,trials.thisTrialN,trials.thisN,trials.thisIndex,TrialOrder,cueImage.started,cueImage.stopped,FixationDur,fixation.started,fixation.stopped,fixationResp.keys,fixationResp.started,fixationResp.stopped,feedbackDur,Trial counter,Target.started,Target.stopped,probeResp.keys,probeResp.corr,probeResp.started,probeResp.stopped,msg,TrackEarnings,TrialType,NonNeutralTrialsNum,probeDur,percentacc_total,meanrt,UserAcc,Acc,AdjTrial,AdjTrialInc,feedback_resp.keys,OverallRT,probeResp.rt,AdjRTmsg,feedback_resp.rt,fixationResp.rt,participant,prac_or_scan,run,date,expName,psychopyVersion,frameRate,
SmallReward,1500,0,0,0,0,TimeVersion14.csv,36.63106802600669,None,1500,38.664211720984895,None,None,38.664211720984895,None,1.6,1,40.232689769996796,None,None,0,40.232689769996796,None,You did not win $0.20!,0,2,1,0.3999999999999999,0.0,nan,[0],0,0,3,None,,,,,,026,Scanner,2,2019_Aug_30_1240,MID,3.1.5,24.045833145800415,
LgReward,1500,0,1,1,1,,42.278994211985264,None,1500,44.29912954400061,None,None,44.29912954400061,None,1.6,2,45.85439255600795,None,1,1,45.85439255600795,None,You won $5.00!,5,1,2,0.3999999999999999,50.0,0.32121464499505237,"[0, 1]",0,0,3,None,0.32121464499505237,0.32121464499505237,,,,026,Scanner,2,2019_Aug_30_1240,MID,3.1.5,24.045833145800415,
LgReward,1500,0,2,2,2,,47.90520663099596,None,1500,49.91723396000452,None,None,49.91723396000452,None,1.6,3,51.48256264202064,None,1,1,51.48256264202064,None,You won $5.00!,10,1,3,0.3799999999999999,66.66666666666666,0.3216268329997547,[],66.66666666666666,3,3,None,0.322039021004457,0.322039021004457,Adjusting RT...,,,026,Scanner,2,2019_Aug_30_1240,MID,3.1.5,24.045833145800415,
SmallReward,4000,0,3,3,3,,53.53075725201052,None,4000,55.53540807001991,None,None,55.53540807001991,None,1.62,4,59.60179974400671,None,None,0,59.60179974400671,None,You did not win $0.20!,10,2,4,0.3799999999999999,50.0,0.3216268329997547,[0],66.66666666666666,3,3,1,0.4959039639751426,,,0.11590396397514269,,026,Scanner,2,2019_Aug_30_1240,MID,3.1.5,24.045833145800415,
LgPun,1500,0,4,4,4,,61.657900126010645,None,1500,63.669041078013834,None,None,63.669041078013834,None,1.62,5,65.2187413739739,None,None,0,65.2187413739739,None,You lost $5.00!,5,4,5,0.3799999999999999,40.0,0.3216268329997547,"[0, 0]",66.66666666666666,3,3,None,0.4959039639751426,,,,,026,Scanner,2,2019_Aug_30_1240,MID,3.1.5,24.045833145800415,
LgPun,1500,0,5,5,5,,67.28072882600827,None,1500,69.30228545499267,None,None,69.30228545499267,None,1.62,6,70.84161295800004,None,None,0,70.84161295800004,None,You lost $5.00!,0,4,6,0.4199999999999999,33.33333333333333,0.3216268329997547,[],33.33333333333333,6,3,1,0.4289006220223381,,Adjusting RT...,0.008900622022338212,,026,Scanner,2,2019_Aug_30_1240,MID,3.1.5,24.045833145800415,
LgReward,1500,0,6,6,6,,72.86486633698223,None,1500,74.87048195797252,None,None,74.87048195797252,None,1.58,7,76.4373892369913,None,1,1,76.4373892369913,None,You won $5.00!,5,1,7,0.4199999999999999,42.857142857142854,0.29881882867387805,[1],33.33333333333333,6,3,None,0.2532028200221248,0.2532028200221248,,,,026,Scanner,2,2019_Aug_30_1240,MID,3.1.5,24.045833145800415,
SmallPun,3500,0,7,7,7,,78.49035701598041,None,3500,80.50500053499127,None,None,80.50500053499127,None,1.58,8,84.05476221698336,None,1,1,84.05476221698336,None,You did not lose $0.20!,5,5,8,0.4199999999999999,50.0,0.30807219275448006,"[1, 1]",33.33333333333333,6,3,None,0.33583228499628603,0.33583228499628603,,,,026,Scanner,2,2019_Aug_30_1240,MID,3.1.5,24.045833145800415,
LgReward,4000,0,8,8,8,,86.11531879100949,None,4000,88.1249472660129,None,1,88.1249472660129,None,1.58,9,92.19262832897948,None,None,0,92.19262832897948,None,You did not win $5.00!,5,1,9,0.45999999999999985,44.44444444444444,0.30807219275448006,[],33.33333333333333,9,3,None,0.33583228499628603,,Adjusting RT...,,2.7136514330049977,026,Scanner,2,2019_Aug_30_1240,MID,3.1.5,24.045833145800415,
LgPun,2500,0,9,9,9,,94.24119666201295,None,2500,96.25704092200613,None,None,96.25704092200613,None,1.54,10,98.80687389097875,None,1,1,98.80687389097875,None,You did not lose $5.00!,5,4,10,0.45999999999999985,50.0,0.3143765743938275,[1],33.33333333333333,9,3,None,0.3395941009512171,0.3395941009512171,,,,026,Scanner,2,2019_Aug_30_1240,MID,3.1.5,24.045833145800415,
SmallPun,1500,0,10,10,10,,100.86504131701076,None,1500,102.87480185000459,None,None,102.87480185000459,None,1.54,11,104.42516191396862,None,1,1,104.42516191396862,None,You did not lose $0.20!,5,5,11,0.45999999999999985,54.54545454545454,0.3242192378287048,"[1, 1]",33.33333333333333,9,3,None,0.3734325550030917,0.3734325550030917,,,,026,Scanner,2,2019_Aug_30_1240,MID,3.1.5,24.045833145800415,
SmallPun,1500,0,11,11,11,,106.49118861899478,None,1500,108.50835689500673,None,None,108.50835689500673,None,1.54,12,110.05816585198045,None,None,0,110.05816585198045,None,You lost $0.20!,4.8,5,12,0.43999999999999984,50.0,0.3242192378287048,[],66.66666666666666,12,3,1,0.4897901510098016,,Adjusting RT...,0.049790151009801775,,026,Scanner,2,2019_Aug_30_1240,MID,3.1.5,24.045833145800415,
LgPun,1500,0,12,12,12,,112.11641367897391,None,1500,114.12647840799764,None,None,114.12647840799764,None,1.56,13,115.67550398799358,None,1,1,115.67550398799358,None,You did not lose $5.00!,4.8,4,13,0.43999999999999984,53.84615384615385,0.3256294555695994,[1],66.66666666666666,12,3,None,0.33409076201496646,0.33409076201496646,,,,026,Scanner,2,2019_Aug_30_1240,MID,3.1.5,24.045833145800415,
Triangle,1500,0,13,13,13,,117.70035605697194,None,1500,119.70831747201737,None,None,119.70831747201737,None,1.56,14,121.26008971297415,None,None,0,121.26008971297415,None,You did not win or lose anything!,4.8,3,13,0.43999999999999984,50.0,0.3256294555695994,[1],66.66666666666666,12,3,1,0.4210752359917386,,,-0.018924764008261263,,026,Scanner,2,2019_Aug_30_1240,MID,3.1.5,24.045833145800415,
SmallPun,1500,0,14,14,14,,123.28360936098034,None,1500,125.29384290298913,None,None,125.29384290298913,None,1.56,15,126.84343916299986,None,1,1,126.84343916299986,None,You did not lose $0.20!,4.8,5,14,0.43999999999999984,53.333333333333336,0.32468266774958465,"[1, 1]",66.66666666666666,12,3,None,0.31805515300948173,0.31805515300948173,,,,026,Scanner,2,2019_Aug_30_1240,MID,3.1.5,24.045833145800415,
SmallPun,2000,0,15,15,15,,128.8677794020041,None,2000,130.87779445399065,None,None,130.87779445399065,None,1.56,16,132.92811782000354,None,1,1,132.92811782000354,None,You did not lose $0.20!,4.8,5,15,0.4099999999999998,56.25,0.32810350944701994,[],83.33333333333333,15,3,None,0.35547024302650243,0.35547024302650243,Adjusting RT...,,,026,Scanner,2,2019_Aug_30_1240,MID,3.1.5,24.045833145800415,
LgReward,3500,0,16,16,16,,134.95069063897245,None,3500,136.96194395096973,None,None,136.96194395096973,None,1.5900000000000003,17,140.52823954698397,None,1,1,140.52823954698397,None,You won $5.00!,9.8,1,16,0.4099999999999998,58.82352941176471,0.3282289942028001,[1],83.33333333333333,15,3,None,0.3293583570048213,0.3293583570048213,,,,026,Scanner,2,2019_Aug_30_1240,MID,3.1.5,24.045833145800415,
LgReward,3000,0,17,17,17,,142.5798171759816,None,3000,144.59608541300986,None,None,144.59608541300986,None,1.5900000000000003,18,147.64609514700714,None,1,1,147.64609514700714,None,You won $5.00!,14.8,1,17,0.4099999999999998,61.111111111111114,0.3282538112729195,"[1, 1]",83.33333333333333,15,3,None,0.32850198197411373,0.32850198197411373,,,,026,Scanner,2,2019_Aug_30_1240,MID,3.1.5,24.045833145800415,
SmallReward,3500,0,18,18,18,,149.70399235701188,None,3500,151.71311021299334,None,None,151.71311021299334,None,1.5900000000000003,19,155.27987223298987,None,1,1,155.27987223298987,None,You won $0.20!,15.0,2,18,0.3599999999999998,63.1578947368421,0.32619886558677536,[],100.0,18,3,None,0.3035944630391896,0.3035944630391896,Adjusting RT...,,,026,Scanner,2,2019_Aug_30_1240,MID,3.1.5,24.045833145800415,
Triangle,3500,0,19,19,19,,157.32650797901442,None,3500,159.33274838601938,None,None,159.33274838601938,None,1.6400000000000001,20,162.88647566799773,None,None,0,162.88647566799773,None,You did not win or lose anything!,15.0,3,18,0.3599999999999998,60.0,0.32619886558677536,[],100.0,18,3,1,0.3531532869813962,,,-0.006846713018603623,,026,Scanner,2,2019_Aug_30_1240,MID,3.1.5,24.045833145800415,
SmallPun,1500,0,20,20,20,,164.9099749670131,None,1500,166.93273462797515,None,None,166.93273462797515,None,1.6400000000000001,21,168.4817214810173,None,None,0,168.4817214810173,None,You lost $0.20!,14.8,5,19,0.3599999999999998,57.14285714285714,0.32619886558677536,[0],100.0,18,3,1,0.3587462709541431,,,-0.001253729045856744,,026,Scanner,2,2019_Aug_30_1240,MID,3.1.5,24.045833145800415,
SmallReward,1500,0,21,21,21,,170.4945915340213,None,1500,172.50027229299303,None,None,172.50027229299303,None,1.6400000000000001,22,174.0659586369875,None,None,0,174.0659586369875,None,You did not win $0.20!,14.8,2,20,0.3599999999999998,54.54545454545454,0.32619886558677536,"[0, 0]",100.0,18,3,1,0.3522396470210513,,,-0.007760352978948504,,026,Scanner,2,2019_Aug_30_1240,MID,3.1.5,24.045833145800415,
LgPun,1500,0,22,22,22,,176.1195069690002,None,1500,178.12236690201098,None,None,178.12236690201098,None,1.6400000000000001,23,179.63740690401755,None,None,0,179.63740690401755,None,You lost $5.00!,9.8,4,21,0.37999999999999984,52.17391304347826,0.32619886558677536,[],50.0,21,3,1,0.37847748799948006,,Adjusting RT...,-0.0015225120005197823,,026,Scanner,2,2019_Aug_30_1240,MID,3.1.5,24.045833145800415,
Triangle,3000,0,23,23,23,,181.66115399898263,None,3000,183.66823956201551,None,None,183.66823956201551,None,1.62,24,186.7205988210044,None,None,0,186.7205988210044,None,You did not win or lose anything!,9.8,3,21,0.37999999999999984,50.0,0.32619886558677536,[],50.0,21,3,None,0.37847748799948006,,,,,026,Scanner,2,2019_Aug_30_1240,MID,3.1.5,24.045833145800415,
Triangle,1500,0,24,24,24,,188.7856233729981,None,1500,190.80177508096676,None,None,190.80177508096676,None,1.62,25,192.35295551200397,None,1,1,192.35295551200397,None,You did not win or lose anything!,9.8,3,21,0.37999999999999984,52.0,0.3243099590808225,[],50.0,21,3,None,0.30164308100938797,0.30164308100938797,,,,026,Scanner,2,2019_Aug_30_1240,MID,3.1.5,24.045833145800415,
SmallPun,3000,0,25,25,25,,194.41222287801793,None,3000,196.43668418796733,None,None,196.43668418796733,None,1.62,26,199.47177653899416,None,None,0,199.47177653899416,None,You lost $0.20!,9.600000000000001,5,22,0.37999999999999984,50.0,0.3243099590808225,[0],50.0,21,3,1,0.4483255079784429,,,0.06832550797844306,,026,Scanner,2,2019_Aug_30_1240,MID,3.1.5,24.045833145800415,
SmallReward,2000,0,26,26,26,,201.53743014798965,None,2000,203.55380630202126,None,None,203.55380630202126,None,1.62,27,205.61162600899115,None,None,0,205.61162600899115,None,You did not win $0.20!,9.600000000000001,2,23,0.37999999999999984,48.148148148148145,0.3243099590808225,"[0, 0]",50.0,21,3,None,0.4483255079784429,,,,,026,Scanner,2,2019_Aug_30_1240,MID,3.1.5,24.045833145800415,
SmallPun,4000,0,27,27,27,,207.66275380301522,None,4000,209.67328468797496,None,None,209.67328468797496,None,1.62,28,213.72275535197696,None,None,0,213.72275535197696,None,You lost $0.20!,9.400000000000002,5,24,0.44999999999999984,46.42857142857143,0.3243099590808225,[],0.0,24,3,None,0.4483255079784429,,Adjusting RT...,,,026,Scanner,2,2019_Aug_30_1240,MID,3.1.5,24.045833145800415,
LgReward,2000,0,28,28,28,,215.78812440298498,None,2000,217.8056316979928,None,None,217.8056316979928,None,1.5500000000000003,29,219.85939693299588,None,1,1,219.85939693299588,None,You won $5.00!,14.400000000000002,1,25,0.44999999999999984,48.275862068965516,0.32358763728656675,[1],0.0,24,3,None,0.314197453961242,0.314197453961242,,,,026,Scanner,2,2019_Aug_30_1240,MID,3.1.5,24.045833145800415,
SmallReward,1500,0,29,29,29,,221.91579504701076,None,1500,223.91889574599918,None,None,223.91889574599918,None,1.5500000000000003,30,225.44489075697493,None,1,1,225.44489075697493,None,You won $0.20!,14.600000000000001,2,26,0.44999999999999984,50.0,0.32686209133438143,"[1, 1]",0.0,24,3,None,0.37270444800378755,0.37270444800378755,,,,026,Scanner,2,2019_Aug_30_1240,MID,3.1.5,24.045833145800415,
LgReward,1500,0,30,30,30,,227.49943640700076,None,1500,229.50753851397894,None,None,229.50753851397894,None,1.5500000000000003,31,231.073788203008,None,None,0,231.073788203008,None,You did not win $5.00!,14.600000000000001,1,27,0.4899999999999998,48.38709677419355,0.32686209133438143,[],33.33333333333333,27,3,None,0.37270444800378755,,Adjusting RT...,,,026,Scanner,2,2019_Aug_30_1240,MID,3.1.5,24.045833145800415,
SmallReward,2000,0,31,31,31,,233.12214073201176,None,2000,235.14063436200377,None,None,235.14063436200377,None,1.5100000000000002,32,237.1975017359946,None,1,1,237.1975017359946,None,You won $0.20!,14.8,2,28,0.4899999999999998,50.0,0.3276849118155951,[1],33.33333333333333,27,3,None,0.34002721903380007,0.34002721903380007,,,,026,Scanner,2,2019_Aug_30_1240,MID,3.1.5,24.045833145800415,
LgPun,3000,0,32,32,32,,239.2471241930034,None,3000,241.2594195989659,None,None,241.2594195989659,None,1.5100000000000002,33,244.3093188040075,None,1,1,244.3093188040075,None,You did not lose $5.00!,14.8,4,29,0.4899999999999998,51.515151515151516,0.3281271040049272,"[1, 1]",33.33333333333333,27,3,None,0.33520217903424054,0.33520217903424054,,,,026,Scanner,2,2019_Aug_30_1240,MID,3.1.5,24.045833145800415,
SmallPun,2000,0,33,33,33,,246.3728999189916,None,2000,248.39235530002043,None,None,248.39235530002043,None,1.5100000000000002,34,250.4308725830051,None,1,1,250.4308725830051,None,You did not lose $0.20!,14.8,5,30,0.45999999999999985,52.94117647058824,0.32643796567248906,[],83.33333333333333,30,3,None,0.2977226140210405,0.2977226140210405,Adjusting RT...,,,026,Scanner,2,2019_Aug_30_1240,MID,3.1.5,24.045833145800415,
Triangle,2500,0,34,34,34,,252.45676590001676,None,2500,254.4626019729767,None,None,254.4626019729767,None,1.54,35,257.01569619297516,None,None,0,257.01569619297516,None,You did not win or lose anything!,14.8,3,30,0.45999999999999985,51.42857142857142,0.32643796567248906,[],83.33333333333333,30,3,None,0.2977226140210405,,,,,026,Scanner,2,2019_Aug_30_1240,MID,3.1.5,24.045833145800415,
Triangle,2000,0,35,35,35,,259.0817138790153,None,2000,261.09427621698705,None,None,261.09427621698705,None,1.54,36,263.14480949001154,None,1,1,263.14480949001154,None,You did not win or lose anything!,14.8,3,30,0.45999999999999985,52.77777777777778,0.3239807662688882,[],83.33333333333333,30,3,None,0.2797511770040728,0.2797511770040728,,,,026,Scanner,2,2019_Aug_30_1240,MID,3.1.5,24.045833145800415,
SmallPun,2500,0,36,36,36,,265.20623344701016,None,2500,267.2286262389971,None,None,267.2286262389971,None,1.54,37,269.763894675998,None,1,1,269.763894675998,None,You did not lose $0.20!,14.8,5,31,0.45999999999999985,54.054054054054056,0.32521768295555376,[1],83.33333333333333,30,3,None,0.3487191000021994,0.3487191000021994,,,,026,Scanner,2,2019_Aug_30_1240,MID,3.1.5,24.045833145800415,
SmallReward,3000,0,37,37,37,,271.8345511140069,None,3000,273.8461068769684,None,None,273.8461068769684,None,1.54,38,276.91297195700463,None,None,0,276.91297195700463,None,You did not win $0.20!,14.8,2,32,0.45999999999999985,52.63157894736842,0.32521768295555376,"[1, 0]",83.33333333333333,30,3,1,0.47732973899925113,,,0.017329738999251276,,026,Scanner,2,2019_Aug_30_1240,MID,3.1.5,24.045833145800415,
LgPun,2000,0,38,38,38,,278.95910048898077,None,2000,280.9639855750138,None,None,280.9639855750138,None,1.54,39,283.01704228599556,None,None,0,283.01704228599556,None,You lost $5.00!,9.8,4,33,0.43999999999999984,51.28205128205128,0.32521768295555376,[],66.66666666666666,33,3,None,0.47732973899925113,,Adjusting RT...,,,026,Scanner,2,2019_Aug_30_1240,MID,3.1.5,24.045833145800415,
LgPun,3500,0,39,39,39,,285.08155553700635,None,3500,287.09807158698095,None,None,287.09807158698095,None,1.56,40,290.64797331998125,None,1,1,290.64797331998125,None,You did not lose $5.00!,9.8,4,34,0.43999999999999984,52.5,0.3259512227183829,[1],66.66666666666666,33,3,None,0.3406220179749653,0.3406220179749653,,,,026,Scanner,2,2019_Aug_30_1240,MID,3.1.5,24.045833145800415,
LgReward,2000,0,40,40,40,,292.66654672898585,None,2000,294.6826715290081,None,None,294.6826715290081,None,1.56,41,296.7399243239779,None,1,1,296.7399243239779,None,You won $5.00!,14.8,1,35,0.43999999999999984,53.65853658536586,0.32575656336848624,"[1, 1]",66.66666666666666,33,3,None,0.3216687170206569,0.3216687170206569,,,,026,Scanner,2,2019_Aug_30_1240,MID,3.1.5,24.045833145800415,
LgReward,2500,0,41,41,41,,298.7934254499851,None,2500,300.79937914101174,None,None,300.79937914101174,None,1.56,42,303.33234248001827,None,1,1,303.33234248001827,None,You won $5.00!,19.8,1,36,0.4199999999999998,54.761904761904766,0.3276042939168806,[],66.66666666666666,36,3,None,0.3682543659815565,0.3682543659815565,Adjusting RT...,,,026,Scanner,2,2019_Aug_30_1240,MID,3.1.5,24.045833145800415,
Triangle,2000,0,42,42,42,,305.375342727988,None,2000,307.3834308969672,None,None,307.3834308969672,None,1.58,43,309.43458274699515,None,1,1,309.43458274699515,None,You did not win or lose anything!,19.8,3,36,0.4199999999999998,55.81395348837209,0.3274947924607356,[],66.66666666666666,36,3,None,0.3249762589694001,0.3249762589694001,,,,026,Scanner,2,2019_Aug_30_1240,MID,3.1.5,24.045833145800415,
Triangle,1500,0,43,43,43,,311.5007393200067,None,1500,313.51797380001517,None,None,313.51797380001517,None,1.58,44,315.0675221760175,None,None,0,315.0675221760175,None,You did not win or lose anything!,19.8,3,36,0.4199999999999998,54.54545454545454,0.3274947924607356,[],66.66666666666666,36,3,None,0.3249762589694001,,,,,026,Scanner,2,2019_Aug_30_1240,MID,3.1.5,24.045833145800415,
LgPun,2000,0,44,44,44,,317.126097166969,None,2000,319.1364934889716,None,None,319.1364934889716,None,1.58,45,321.18528966401936,None,None,0,321.18528966401936,None,You lost $5.00!,14.8,4,37,0.4199999999999998,53.333333333333336,0.3274947924607356,[0],66.66666666666666,36,3,1,0.4047168150008654,,,-0.015283184999134392,,026,Scanner,2,2019_Aug_30_1240,MID,3.1.5,24.045833145800415,
Triangle,4000,0,45,45,45,,323.251138104999,None,4000,325.25673619500594,None,None,325.25673619500594,None,1.58,46,329.3105844950187,None,None,0,329.3105844950187,None,You did not win or lose anything!,14.8,3,37,0.4199999999999998,52.17391304347826,0.3274947924607356,[0],66.66666666666666,36,3,1,0.4421604799735358,,,0.022160479973535985,,026,Scanner,2,2019_Aug_30_1240,MID,3.1.5,24.045833145800415,
Triangle,1500,0,46,46,46,,331.3760642639827,None,1500,333.38799509598175,None,None,333.38799509598175,None,1.58,47,334.93947807798395,None,None,0,334.93947807798395,None,You did not win or lose anything!,14.8,3,37,0.4199999999999998,51.06382978723404,0.3274947924607356,[0],66.66666666666666,36,3,None,0.4421604799735358,,,,,026,Scanner,2,2019_Aug_30_1240,MID,3.1.5,24.045833145800415,
LgPun,4000,0,47,47,47,,336.96022126299795,None,4000,338.97133380698506,None,None,338.97133380698506,None,1.58,48,343.02175447600894,None,1,1,343.02175447600894,None,You did not lose $5.00!,14.8,4,38,0.4199999999999998,52.083333333333336,0.32698420352302493,"[0, 1]",66.66666666666666,36,3,None,0.31473006901796907,0.31473006901796907,,,,026,Scanner,2,2019_Aug_30_1240,MID,3.1.5,24.045833145800415,
SmallReward,1500,0,48,48,48,,345.08543610497145,None,1500,347.1057354839868,None,None,347.1057354839868,None,1.58,49,348.6563534839661,None,1,1,348.6563534839661,None,You won $0.20!,15.0,2,39,0.3899999999999998,53.06122448979592,0.32741725592551607,[],83.33333333333333,39,3,None,0.3382435659877956,0.3382435659877956,Adjusting RT...,,,026,Scanner,2,2019_Aug_30_1240,MID,3.1.5,24.045833145800415,
SmallReward,2500,0,49,49,49,,350.7109454959864,None,2500,352.7227463820018,None,None,352.7227463820018,None,1.6100000000000003,50,355.2814484600094,None,None,0,355.2814484600094,None,You did not win $0.20!,15.0,2,40,0.3899999999999998,52.0,0.32741725592551607,[0],83.33333333333333,39,3,1,0.6056600290327331,,,0.2156600290327333,,026,Scanner,2,2019_Aug_30_1240,MID,3.1.5,24.045833145800415,
,,,,,,,,,,,,,,,,,,,,,,,,,,,,,,,,,,,,,,,,026,Scanner,2,2019_Aug_30_1240,MID,3.1.5,24.045833145800415,
