Condition,FixationDur,trials.thisRepN,trials.thisTrialN,trials.thisN,trials.thisIndex,TrialOrder,cueImage.started,cueImage.stopped,FixationDur,fixation.started,fixation.stopped,fixationResp.keys,fixationResp.started,fixationResp.stopped,feedbackDur,Trial counter,Target.started,Target.stopped,probeResp.keys,probeResp.corr,probeResp.started,probeResp.stopped,msg,TrackEarnings,TrialType,NonNeutralTrialsNum,probeDur,percentacc_total,meanrt,UserAcc,Acc,AdjTrial,AdjTrialInc,probeResp.rt,AdjRTmsg,fixationResp.rt,participant,prac_or_scan,run,date,expName,psychopyVersion,frameRate,
LgPun,2500,0,0,0,0,TimeVersion6.csv,28.19555569300428,None,2500,30.216843553003855,None,None,30.216843553003855,None,1.5,1,32.7177744480141,None,None,0,32.7177744480141,None,You lost $5.00!,-5,4,1,0.5,0.0,nan,[0],0,0,3,,,,027,Scanner,1,2019_Aug_27_1058,MID,3.1.5,24.010254106274342,
LgReward,1500,0,1,1,1,,34.69527664000634,None,1500,36.70309861199348,None,None,36.70309861199348,None,1.5,2,38.23449982501916,None,None,0,38.23449982501916,None,You did not win $5.00!,-5,1,2,0.5,0.0,nan,"[0, 0]",0,0,3,,,,027,Scanner,1,2019_Aug_27_1058,MID,3.1.5,24.010254106274342,
LgPun,1500,0,2,2,2,,40.195292353018885,None,1500,42.20608001499204,None,None,42.20608001499204,None,1.5,3,43.71858114699717,None,1,1,43.71858114699717,None,You did not lose $5.00!,-5,4,3,0.5,33.33333333333333,0.38057462699362077,[],33.33333333333333,3,3,0.38057462699362077,Adjusting RT...,,027,Scanner,1,2019_Aug_27_1058,MID,3.1.5,24.010254106274342,
SmallReward,2000,0,3,3,3,,45.695138954004506,None,2000,47.703999046003446,None,None,47.703999046003446,None,1.5,4,49.72711433999939,None,None,0,49.72711433999939,None,You did not win $0.20!,-5,2,4,0.5,25.0,0.38057462699362077,[0],33.33333333333333,3,3,,,,027,Scanner,1,2019_Aug_27_1058,MID,3.1.5,24.010254106274342,
Triangle,2000,0,4,4,4,,51.69797258399194,None,2000,53.705570128018735,None,None,53.705570128018735,None,1.5,5,55.72036348900292,None,1,1,55.72036348900292,None,You did not win or lose anything!,-5,3,4,0.5,40.0,0.3726880504982546,[0],33.33333333333333,3,3,0.3648014740028884,,,027,Scanner,1,2019_Aug_27_1058,MID,3.1.5,24.010254106274342,
SmallReward,1500,0,5,5,5,,57.699742771015735,None,1500,59.70456784701673,None,None,59.70456784701673,None,1.5,6,61.23795237901504,None,None,0,61.23795237901504,None,You did not win $0.20!,-5,2,5,0.5,33.33333333333333,0.3726880504982546,"[0, 0]",33.33333333333333,3,3,,,,027,Scanner,1,2019_Aug_27_1058,MID,3.1.5,24.010254106274342,
Triangle,1500,0,6,6,6,,63.19684494199464,None,1500,65.20548431100906,None,None,65.20548431100906,None,1.5,7,66.7215268239961,None,1,1,66.7215268239961,None,You did not win or lose anything!,-5,3,5,0.5,42.857142857142854,0.35701262233002734,"[0, 0]",33.33333333333333,3,3,0.32566176599357277,,,027,Scanner,1,2019_Aug_27_1058,MID,3.1.5,24.010254106274342,
LgPun,1500,0,7,7,7,,68.69743229201413,None,1500,70.70601481900667,None,None,70.70601481900667,None,1.5,8,72.22148162199301,None,None,0,72.22148162199301,None,You lost $5.00!,-10,4,6,0.5,37.5,0.35701262233002734,[],16.666666666666664,6,3,,Adjusting RT...,,027,Scanner,1,2019_Aug_27_1058,MID,3.1.5,24.010254106274342,
LgReward,2000,0,8,8,8,,74.19746782301809,None,2000,76.20612745900871,None,None,76.20612745900871,None,1.5,9,78.24057630100287,None,1,1,78.24057630100287,None,You won $5.00!,-5,1,7,0.5,44.44444444444444,0.35515524324728176,[1],16.666666666666664,6,3,0.3495831059990451,,,027,Scanner,1,2019_Aug_27_1058,MID,3.1.5,24.010254106274342,
SmallPun,4000,0,9,9,9,,80.19955162500264,None,4000,82.20729343700805,None,None,82.20729343700805,None,1.5,10,86.22287880600197,None,None,0,86.22287880600197,None,You lost $0.20!,-5.2,5,8,0.5,40.0,0.35515524324728176,"[1, 0]",16.666666666666664,6,3,,,,027,Scanner,1,2019_Aug_27_1058,MID,3.1.5,24.010254106274342,
LgPun,1500,0,10,10,10,,88.19829442800255,None,1500,90.2086300800147,None,None,90.2086300800147,None,1.5,11,91.71452440900612,None,None,0,91.71452440900612,None,You lost $5.00!,-10.2,4,9,0.5,36.36363636363637,0.35515524324728176,[],16.666666666666664,9,3,,Adjusting RT...,,027,Scanner,1,2019_Aug_27_1058,MID,3.1.5,24.010254106274342,
SmallReward,1500,0,11,11,11,,93.69836892900639,None,1500,95.70850676400005,None,None,95.70850676400005,None,1.5,12,97.23057620000327,None,None,0,97.23057620000327,None,You did not win $0.20!,-10.2,2,10,0.5,33.33333333333333,0.35515524324728176,[0],16.666666666666664,9,3,,,,027,Scanner,1,2019_Aug_27_1058,MID,3.1.5,24.010254106274342,
LgReward,4000,0,12,12,12,,99.20058380300179,None,4000,101.2101548089995,None,None,101.2101548089995,None,1.5,13,105.24155401499593,None,None,0,105.24155401499593,None,You did not win $5.00!,-10.2,1,11,0.5,30.76923076923077,0.35515524324728176,"[0, 0]",16.666666666666664,9,3,,,,027,Scanner,1,2019_Aug_27_1058,MID,3.1.5,24.010254106274342,
Triangle,1500,0,13,13,13,,107.19886765201227,None,1500,109.2104124299949,None,None,109.2104124299949,None,1.5,14,110.71626873599598,None,None,0,110.71626873599598,None,You did not win or lose anything!,-10.2,3,11,0.5,28.57142857142857,0.35515524324728176,"[0, 0]",16.666666666666664,9,3,,,,027,Scanner,1,2019_Aug_27_1058,MID,3.1.5,24.010254106274342,
LgPun,2000,0,14,14,14,,112.69920087399078,None,2000,114.71163801199873,None,None,114.71163801199873,None,1.5,15,116.71657168801175,None,1,1,116.71657168801175,None,You did not lose $5.00!,-10.2,4,12,0.5,33.33333333333333,0.3578171864035539,[],33.33333333333333,12,3,0.3684649590286426,Adjusting RT...,,027,Scanner,1,2019_Aug_27_1058,MID,3.1.5,24.010254106274342,
Triangle,3000,0,15,15,15,,118.69946927001001,None,3000,120.70420196600026,None,None,120.70420196600026,None,1.5,16,123.71820786001626,None,1,1,123.71820786001626,None,You did not win or lose anything!,-10.2,3,12,0.5,37.5,0.35716932983874966,[],33.33333333333333,12,3,0.3539300470147282,,,027,Scanner,1,2019_Aug_27_1058,MID,3.1.5,24.010254106274342,
SmallPun,1500,0,16,16,16,,125.70003759299289,None,1500,127.71277597401058,None,None,127.71277597401058,None,1.5,17,129.21910124301212,None,None,0,129.21910124301212,None,You lost $0.20!,-10.399999999999999,5,13,0.5,35.294117647058826,0.35716932983874966,[0],33.33333333333333,12,3,,,,027,Scanner,1,2019_Aug_27_1058,MID,3.1.5,24.010254106274342,
Triangle,3500,0,17,17,17,,131.2000335380144,None,3500,133.21408689999953,None,None,133.21408689999953,None,1.5,18,136.7214956730022,None,None,0,136.7214956730022,None,You did not win or lose anything!,-10.399999999999999,3,13,0.5,33.33333333333333,0.35716932983874966,[0],33.33333333333333,12,3,,,,027,Scanner,1,2019_Aug_27_1058,MID,3.1.5,24.010254106274342,
LgPun,3000,0,18,18,18,,138.70058889800566,None,3000,140.7152287820063,None,None,140.7152287820063,None,1.5,19,143.7210936830088,None,None,0,143.7210936830088,None,You lost $5.00!,-15.399999999999999,4,14,0.5,31.57894736842105,0.35716932983874966,"[0, 0]",33.33333333333333,12,3,,,,027,Scanner,1,2019_Aug_27_1058,MID,3.1.5,24.010254106274342,
LgReward,1500,0,19,19,19,,145.7008970210154,None,1500,147.70679699099855,None,None,147.70679699099855,None,1.5,20,149.23388210099074,None,1,1,149.23388210099074,None,You won $5.00!,-10.399999999999999,1,15,0.5,35.0,0.3546121875738858,[],33.33333333333333,15,3,0.3392693339847028,Adjusting RT...,,027,Scanner,1,2019_Aug_27_1058,MID,3.1.5,24.010254106274342,
LgPun,1500,0,20,20,20,,151.20260167701053,None,1500,153.21668935200432,None,None,153.21668935200432,None,1.5,21,154.71930658599013,None,None,0,154.71930658599013,None,You lost $5.00!,-15.399999999999999,4,16,0.5,33.33333333333333,0.3546121875738858,[0],33.33333333333333,15,3,,,,027,Scanner,1,2019_Aug_27_1058,MID,3.1.5,24.010254106274342,
LgReward,1500,0,21,21,21,,156.70117672500783,None,1500,158.7171466430009,None,1,158.7171466430009,None,1.5,22,160.23449192300905,None,None,0,160.23449192300905,None,You did not win $5.00!,-15.399999999999999,1,17,0.5,31.818181818181817,0.3546121875738858,"[0, 0]",33.33333333333333,15,3,,,1.298011872015195,027,Scanner,1,2019_Aug_27_1058,MID,3.1.5,24.010254106274342,
LgReward,1500,0,22,22,22,,162.20404548401712,None,1500,164.2177642369934,None,None,164.2177642369934,None,1.5,23,165.73949172301218,None,None,0,165.73949172301218,None,You did not win $5.00!,-15.399999999999999,1,18,0.5,30.434782608695656,0.3546121875738858,[],16.666666666666664,18,3,,Adjusting RT...,,027,Scanner,1,2019_Aug_27_1058,MID,3.1.5,24.010254106274342,
Triangle,1500,0,23,23,23,,167.70181990900892,None,1500,169.71902233100263,None,None,169.71902233100263,None,1.5,24,171.22028172700084,None,1,1,171.22028172700084,None,You did not win or lose anything!,-15.399999999999999,3,18,0.5,33.33333333333333,0.3541450690026977,[],16.666666666666664,18,3,0.350875239004381,,,027,Scanner,1,2019_Aug_27_1058,MID,3.1.5,24.010254106274342,
SmallReward,3500,0,24,24,24,,173.2011029419955,None,3500,175.2197733290086,None,None,175.2197733290086,None,1.5,25,178.73762048699427,None,1,1,178.73762048699427,None,You won $0.20!,-15.2,2,19,0.5,36.0,0.3565091646677401,[1],16.666666666666664,18,3,0.3754219299880788,,,027,Scanner,1,2019_Aug_27_1058,MID,3.1.5,24.010254106274342,
SmallPun,2000,0,25,25,25,,180.70263117199647,None,2000,182.72025239199866,None,None,182.72025239199866,None,1.5,26,184.7208515240054,None,None,0,184.7208515240054,None,You lost $0.20!,-15.399999999999999,5,20,0.5,34.61538461538461,0.3565091646677401,"[1, 0]",16.666666666666664,18,3,,,,027,Scanner,1,2019_Aug_27_1058,MID,3.1.5,24.010254106274342,
SmallReward,2500,0,26,26,26,,186.70271212299122,None,2500,188.72080833400832,None,None,188.72080833400832,None,1.5,27,191.24220187301398,None,None,0,191.24220187301398,None,You did not win $0.20!,-15.399999999999999,2,21,0.5,33.33333333333333,0.3565091646677401,[],16.666666666666664,21,3,,Adjusting RT...,,027,Scanner,1,2019_Aug_27_1058,MID,3.1.5,24.010254106274342,
SmallPun,2500,0,27,27,27,,193.20453610099503,None,2500,195.22165483201388,None,None,195.22165483201388,None,1.5,28,197.72190697901533,None,1,1,197.72190697901533,None,You did not lose $0.20!,-15.399999999999999,5,22,0.5,35.714285714285715,0.3556831558002159,[1],16.666666666666664,21,3,0.34824907599249855,,,027,Scanner,1,2019_Aug_27_1058,MID,3.1.5,24.010254106274342,
Triangle,4000,0,28,28,28,,199.7025884320028,None,4000,201.72309385801782,None,None,201.72309385801782,None,1.5,29,205.72314484999515,None,None,0,205.72314484999515,None,You did not win or lose anything!,-15.399999999999999,3,22,0.5,34.48275862068966,0.3556831558002159,[1],16.666666666666664,21,3,,,,027,Scanner,1,2019_Aug_27_1058,MID,3.1.5,24.010254106274342,
LgPun,3500,0,29,29,29,,207.70370503200684,None,3500,209.72349387200666,None,None,209.72349387200666,None,1.5,30,213.22410030601895,None,None,0,213.22410030601895,None,You lost $5.00!,-20.4,4,23,0.5,33.33333333333333,0.3556831558002159,"[1, 0]",16.666666666666664,21,3,,,,027,Scanner,1,2019_Aug_27_1058,MID,3.1.5,24.010254106274342,
Triangle,1500,0,30,30,30,,215.20403638700373,None,1500,217.21110174199566,None,None,217.21110174199566,None,1.5,31,218.72491406000336,None,None,0,218.72491406000336,None,You did not win or lose anything!,-20.4,3,23,0.5,32.25806451612903,0.3556831558002159,"[1, 0]",16.666666666666664,21,3,,,,027,Scanner,1,2019_Aug_27_1058,MID,3.1.5,24.010254106274342,
LgReward,3000,0,31,31,31,,220.70401326200226,None,3000,222.71167669899296,None,1,222.71167669899296,None,1.5,32,225.74309292799444,None,None,0,225.74309292799444,None,You did not win $5.00!,-20.4,1,24,0.5,31.25,0.3556831558002159,[],33.33333333333333,24,3,,Adjusting RT...,0.4353871129860636,027,Scanner,1,2019_Aug_27_1058,MID,3.1.5,24.010254106274342,
Triangle,2500,0,32,32,32,,227.704300390993,None,2500,229.7080515449925,None,None,229.7080515449925,None,1.5,33,232.2262762490136,None,1,1,232.2262762490136,None,You did not win or lose anything!,-20.4,3,24,0.5,33.33333333333333,0.35869490836260165,[],33.33333333333333,24,3,0.3888124339864589,,,027,Scanner,1,2019_Aug_27_1058,MID,3.1.5,24.010254106274342,
Triangle,2000,0,33,33,33,,234.204789764015,None,2000,236.2107440700056,None,None,236.2107440700056,None,1.5,34,238.22763083101017,None,None,0,238.22763083101017,None,You did not win or lose anything!,-20.4,3,24,0.5,32.35294117647059,0.35869490836260165,[],33.33333333333333,24,3,,,,027,Scanner,1,2019_Aug_27_1058,MID,3.1.5,24.010254106274342,
SmallReward,1500,0,34,34,34,,240.2050624699914,None,1500,242.21202158599044,None,None,242.21202158599044,None,1.5,35,243.73594798400882,None,None,0,243.73594798400882,None,You did not win $0.20!,-20.4,2,25,0.5,31.428571428571427,0.35869490836260165,[0],33.33333333333333,24,3,,,,027,Scanner,1,2019_Aug_27_1058,MID,3.1.5,24.010254106274342,
LgPun,2000,0,35,35,35,,245.70717004899052,None,2000,247.71290048101218,None,None,247.71290048101218,None,1.5,36,249.72877425901243,None,None,0,249.72877425901243,None,You lost $5.00!,-25.4,4,26,0.5,30.555555555555557,0.35869490836260165,"[0, 0]",33.33333333333333,24,3,,,,027,Scanner,1,2019_Aug_27_1058,MID,3.1.5,24.010254106274342,
SmallReward,3000,0,36,36,36,,251.7055944300082,None,3000,253.71321759501006,None,None,253.71321759501006,None,1.5,37,256.7361359670176,None,None,0,256.7361359670176,None,You did not win $0.20!,-25.4,2,27,0.5,29.72972972972973,0.35869490836260165,[],16.666666666666664,27,3,,Adjusting RT...,,027,Scanner,1,2019_Aug_27_1058,MID,3.1.5,24.010254106274342,
LgReward,3500,0,37,37,37,,258.7076384620159,None,3500,260.71436892001657,None,None,260.71436892001657,None,1.5,38,264.2468641400046,None,None,0,264.2468641400046,None,You did not win $5.00!,-25.4,1,28,0.5,28.947368421052634,0.35869490836260165,[0],16.666666666666664,27,3,,,,027,Scanner,1,2019_Aug_27_1058,MID,3.1.5,24.010254106274342,
SmallPun,2000,0,38,38,38,,266.2059503700002,None,2000,268.2145633659966,None,None,268.2145633659966,None,1.5,39,270.23091345999273,None,1,1,270.23091345999273,None,You did not lose $0.20!,-25.4,5,29,0.5,30.76923076923077,0.35915720474925666,"[0, 1]",16.666666666666664,27,3,0.36424246500246227,,,027,Scanner,1,2019_Aug_27_1058,MID,3.1.5,24.010254106274342,
SmallReward,4000,0,39,39,39,,272.20662664901465,None,4000,274.2157943469938,None,None,274.2157943469938,None,1.5,40,278.23909407499013,None,None,0,278.23909407499013,None,You did not win $0.20!,-25.4,2,30,0.5,30.0,0.35915720474925666,[],16.666666666666664,30,3,,Adjusting RT...,,027,Scanner,1,2019_Aug_27_1058,MID,3.1.5,24.010254106274342,
SmallPun,1500,0,40,40,40,,280.2065194210154,None,1500,282.2176763479947,None,None,282.2176763479947,None,1.5,41,283.73326367899426,None,None,0,283.73326367899426,None,You lost $0.20!,-25.599999999999998,5,31,0.5,29.268292682926827,0.35915720474925666,[0],16.666666666666664,30,3,,,,027,Scanner,1,2019_Aug_27_1058,MID,3.1.5,24.010254106274342,
SmallReward,2000,0,41,41,41,,285.7074702579994,None,2000,287.71766298401053,None,None,287.71766298401053,None,1.5,42,289.75066699500894,None,None,0,289.75066699500894,None,You did not win $0.20!,-25.599999999999998,2,32,0.5,28.57142857142857,0.35915720474925666,"[0, 0]",16.666666666666664,30,3,,,,027,Scanner,1,2019_Aug_27_1058,MID,3.1.5,24.010254106274342,
SmallReward,1500,0,42,42,42,,291.70918340800563,None,1500,293.7181266400148,None,None,293.7181266400148,None,1.5,43,295.23845960199833,None,1,1,295.23845960199833,None,You won $0.20!,-25.4,2,33,0.5,30.23255813953488,0.36012404815231164,[],33.33333333333333,33,3,0.37172616898897104,Adjusting RT...,,027,Scanner,1,2019_Aug_27_1058,MID,3.1.5,24.010254106274342,
SmallPun,1500,0,43,43,43,,297.209178109013,None,1500,299.2184359660023,None,None,299.2184359660023,None,1.5,44,300.7353917520086,None,1,1,300.7353917520086,None,You did not lose $0.20!,-25.4,5,34,0.5,31.818181818181817,0.3604556674274915,[1],33.33333333333333,33,3,0.3647667180048302,,,027,Scanner,1,2019_Aug_27_1058,MID,3.1.5,24.010254106274342,
SmallPun,1500,0,44,44,44,,302.7076725490042,None,1500,304.71979937999276,None,None,304.71979937999276,None,1.5,45,306.2255226180132,None,1,1,306.2255226180132,None,You did not lose $0.20!,-25.4,5,35,0.5,33.33333333333333,0.3613337959997201,"[1, 1]",33.33333333333333,33,3,0.37362759601091966,,,027,Scanner,1,2019_Aug_27_1058,MID,3.1.5,24.010254106274342,
LgReward,2000,0,45,45,45,,308.20800275501097,None,2000,310.2201847569959,None,None,310.2201847569959,None,1.5,46,312.24103466499946,None,None,0,312.24103466499946,None,You did not win $5.00!,-25.4,1,36,0.5,32.608695652173914,0.3613337959997201,[],49.99999999999999,36,3,,Adjusting RT...,,027,Scanner,1,2019_Aug_27_1058,MID,3.1.5,24.010254106274342,
LgPun,4000,0,46,46,46,,314.2099491819972,None,4000,316.2216885620146,None,1,316.2216885620146,None,1.5,47,320.2257170689991,None,None,0,320.2257170689991,None,You lost $5.00!,-30.4,4,37,0.5,31.914893617021278,0.3613337959997201,[0],49.99999999999999,36,3,,,1.5024713420134503,027,Scanner,1,2019_Aug_27_1058,MID,3.1.5,24.010254106274342,
SmallPun,3000,0,47,47,47,,322.2087611439929,None,3000,324.2226115989906,None,None,324.2226115989906,None,1.5,48,327.2261899349978,None,None,0,327.2261899349978,None,You lost $0.20!,-30.599999999999998,5,38,0.5,31.25,0.3613337959997201,"[0, 0]",49.99999999999999,36,3,,,,027,Scanner,1,2019_Aug_27_1058,MID,3.1.5,24.010254106274342,
LgReward,2500,0,48,48,48,,329.20934130999376,None,2500,331.2229737559974,None,None,331.2229737559974,None,1.5,49,333.7410810610163,None,None,0,333.7410810610163,None,You did not win $5.00!,-30.599999999999998,1,39,0.5,30.612244897959183,0.3613337959997201,[],33.33333333333333,39,3,,Adjusting RT...,,027,Scanner,1,2019_Aug_27_1058,MID,3.1.5,24.010254106274342,
SmallPun,3500,0,49,49,49,,335.70988577001845,None,3500,337.7235767169914,None,None,337.7235767169914,None,1.5,50,341.2308760980086,None,None,0,341.2308760980086,None,You lost $0.20!,-30.799999999999997,5,40,0.5,30.0,0.3613337959997201,[0],33.33333333333333,39,3,,,,027,Scanner,1,2019_Aug_27_1058,MID,3.1.5,24.010254106274342,
,,,,,,,,,,,,,,,,,,,,,,,,,,,,,,,,,,,,,027,Scanner,1,2019_Aug_27_1058,MID,3.1.5,24.010254106274342,
