Condition,FixationDur,trials.thisRepN,trials.thisTrialN,trials.thisN,trials.thisIndex,TrialOrder,cueImage.started,cueImage.stopped,FixationDur,fixation.started,fixation.stopped,fixationResp.keys,fixationResp.started,fixationResp.stopped,feedbackDur,Trial counter,Target.started,Target.stopped,probeResp.keys,probeResp.corr,probeResp.started,probeResp.stopped,msg,TrackEarnings,TrialType,NonNeutralTrialsNum,probeDur,percentacc_total,meanrt,UserAcc,Acc,AdjTrial,AdjTrialInc,feedback_resp.keys,feedback_resp.rt,OverallRT,probeResp.rt,AdjRTmsg,participant,prac_or_scan,run,date,expName,psychopyVersion,frameRate,
SmallPun,1500,0,0,0,0,TimeVersion11.csv,23.17015502997674,None,1500,25.20386085700011,None,None,25.20386085700011,None,1.6300000000000001,1,26.74110112496419,None,None,0,26.74110112496419,None,You lost $0.20!,-0.2,5,1,0.36999999999999994,0.0,nan,[0],0,0,3,1,-0.00260115199489519,0.36739884800510475,,,029,Scanner,2,2019_Aug_31_1654,MID,3.1.5,60.01039776432445,
LgPun,1500,0,1,1,1,,28.791498115984723,None,1500,30.821724622976035,None,None,30.821724622976035,None,1.6300000000000001,2,32.35491665999871,None,1,1,32.35491665999871,None,You did not lose $5.00!,-0.2,4,2,0.36999999999999994,50.0,0.2750872540054843,"[0, 1]",0,0,3,None,,0.2750872540054843,0.2750872540054843,,029,Scanner,2,2019_Aug_31_1654,MID,3.1.5,60.01039776432445,
Triangle,3500,0,2,2,2,,34.40869589900831,None,3500,36.43913041299675,None,None,36.43913041299675,None,1.6300000000000001,3,39.97218314599013,None,1,1,39.97218314599013,None,You did not win or lose anything!,-0.2,3,2,0.36999999999999994,66.66666666666666,0.29446047852979973,"[0, 1]",0,0,3,None,,0.3138337030541152,0.3138337030541152,,029,Scanner,2,2019_Aug_31_1654,MID,3.1.5,60.01039776432445,
Triangle,1500,0,3,3,3,,42.009278456971515,None,1500,44.03946478298167,None,None,44.03946478298167,None,1.6300000000000001,4,45.572901448991615,None,None,0,45.572901448991615,None,You did not win or lose anything!,-0.2,3,2,0.36999999999999994,50.0,0.29446047852979973,"[0, 1]",0,0,3,1,0.012909887009300292,0.38290988700930023,,,029,Scanner,2,2019_Aug_31_1654,MID,3.1.5,60.01039776432445,
LgReward,3500,0,4,4,4,,47.62301832996309,None,3500,49.640300141996704,None,None,49.640300141996704,None,1.6300000000000001,5,53.19088194798678,None,None,0,53.19088194798678,None,You did not win $5.00!,-0.2,1,3,0.4099999999999999,40.0,0.29446047852979973,[],33.33333333333333,3,3,1,0.24321838998002931,0.6532183899800292,,Adjusting RT...,029,Scanner,2,2019_Aug_31_1654,MID,3.1.5,60.01039776432445,
SmallReward,3000,0,5,5,5,,55.24093390296912,None,3000,57.27538691199152,None,None,57.27538691199152,None,1.59,6,60.32480730296811,None,None,0,60.32480730296811,None,You did not win $0.20!,-0.2,2,4,0.4099999999999999,33.33333333333333,0.29446047852979973,[0],33.33333333333333,3,3,1,0.07067015499342233,0.48067015499342225,,,029,Scanner,2,2019_Aug_31_1654,MID,3.1.5,60.01039776432445,
SmallPun,1500,0,6,6,6,,62.376772912975866,None,1500,64.40909135597758,None,None,64.40909135597758,None,1.59,7,65.94302520400379,None,None,0,65.94302520400379,None,You lost $0.20!,-0.4,5,5,0.4099999999999999,28.57142857142857,0.29446047852979973,"[0, 0]",33.33333333333333,3,3,1,0.021870336029678583,0.4318703360296785,,,029,Scanner,2,2019_Aug_31_1654,MID,3.1.5,60.01039776432445,
SmallReward,1500,0,7,7,7,,68.00970767595572,None,1500,70.04324279195862,None,None,70.04324279195862,None,1.59,8,71.59368455898948,None,1,1,71.59368455898948,None,You won $0.20!,-0.2,2,6,0.4499999999999999,37.5,0.32443606535283226,[],33.33333333333333,6,3,None,,0.3843872389988974,0.3843872389988974,Adjusting RT...,029,Scanner,2,2019_Aug_31_1654,MID,3.1.5,60.01039776432445,
LgReward,3000,0,8,8,8,,73.6597686719615,None,3000,75.69417442695703,None,None,75.69417442695703,None,1.55,9,78.74444734095596,None,1,1,78.74444734095596,None,You won $5.00!,4.8,1,7,0.4499999999999999,44.44444444444444,0.30796779826050624,[1],33.33333333333333,6,3,None,,0.25856299698352814,0.25856299698352814,,029,Scanner,2,2019_Aug_31_1654,MID,3.1.5,60.01039776432445,
LgPun,1500,0,9,9,9,,80.77810230699833,None,1500,82.81137378496351,None,None,82.81137378496351,None,1.55,10,84.34437409200473,None,1,1,84.34437409200473,None,You did not lose $5.00!,4.8,4,8,0.4499999999999999,50.0,0.30968231180449945,"[1, 1]",33.33333333333333,6,3,None,,0.3165403659804724,0.3165403659804724,,029,Scanner,2,2019_Aug_31_1654,MID,3.1.5,60.01039776432445,
SmallReward,2000,0,10,10,10,,86.39549705898389,None,2000,88.4290872529964,None,None,88.4290872529964,None,1.55,11,90.47928034799406,None,1,1,90.47928034799406,None,You won $0.20!,5.0,2,9,0.4299999999999999,54.54545454545454,0.30669034683766466,[],66.66666666666666,9,3,None,,0.2917305220034905,0.2917305220034905,Adjusting RT...,029,Scanner,2,2019_Aug_31_1654,MID,3.1.5,60.01039776432445,
LgReward,2000,0,11,11,11,,92.52940172096714,None,2000,94.56342488300288,None,None,94.56342488300288,None,1.57,12,96.61318917799508,None,1,1,96.61318917799508,None,You won $5.00!,10.0,1,10,0.4299999999999999,58.333333333333336,0.30155029128738015,[1],66.66666666666666,9,3,None,,0.2707099579856731,0.2707099579856731,,029,Scanner,2,2019_Aug_31_1654,MID,3.1.5,60.01039776432445,
Triangle,2500,0,12,12,12,,98.64619703800417,None,2500,100.68012814200483,None,None,100.68012814200483,None,1.57,13,103.21283642295748,None,1,1,103.21283642295748,None,You did not win or lose anything!,10.0,3,10,0.4299999999999999,61.53846153846154,0.300506078878243,[1],66.66666666666666,9,3,None,,0.29319659201428294,0.29319659201428294,,029,Scanner,2,2019_Aug_31_1654,MID,3.1.5,60.01039776432445,
LgReward,1500,0,13,13,13,,105.2797528509982,None,1500,107.31403953599511,None,None,107.31403953599511,None,1.57,14,108.86330141499639,None,1,1,108.86330141499639,None,You won $5.00!,15.0,1,11,0.4299999999999999,64.28571428571429,0.3000824177805852,"[1, 1]",66.66666666666666,9,3,None,,0.29669312899932265,0.29669312899932265,,029,Scanner,2,2019_Aug_31_1654,MID,3.1.5,60.01039776432445,
LgPun,2500,0,14,14,14,,110.9140105349943,None,2500,112.94771391898394,None,None,112.94771391898394,None,1.57,15,115.48026593198301,None,1,1,115.48026593198301,None,You did not lose $5.00!,15.0,4,12,0.3799999999999999,66.66666666666666,0.29714839039952495,[],100.0,12,3,None,,0.27074214396998286,0.27074214396998286,Adjusting RT...,029,Scanner,2,2019_Aug_31_1654,MID,3.1.5,60.01039776432445,
SmallReward,1500,0,15,15,15,,117.53080494998721,None,1500,119.56459749297937,None,None,119.56459749297937,None,1.62,16,121.11451177299023,None,None,0,121.11451177299023,None,You did not win $0.20!,15.0,2,13,0.3799999999999999,62.5,0.29714839039952495,[0],100.0,12,3,None,,0.27074214396998286,,,029,Scanner,2,2019_Aug_31_1654,MID,3.1.5,60.01039776432445,
LgReward,1500,0,16,16,16,,123.18137446098262,None,1500,125.21509930695174,None,None,125.21509930695174,None,1.62,17,126.76456977700582,None,1,1,126.76456977700582,None,You won $5.00!,20.0,1,14,0.3799999999999999,64.70588235294117,0.2958006838188422,"[0, 1]",100.0,12,3,None,,0.2823236180120148,0.2823236180120148,,029,Scanner,2,2019_Aug_31_1654,MID,3.1.5,60.01039776432445,
SmallPun,3500,0,17,17,17,,128.81479083100567,None,3500,130.84918581997044,None,None,130.84918581997044,None,1.62,18,134.38201264099916,None,1,1,134.38201264099916,None,You did not lose $0.20!,20.0,5,15,0.34999999999999987,66.66666666666666,0.2992343885853188,[],83.33333333333333,15,3,None,,0.33700514101656154,0.33700514101656154,Adjusting RT...,029,Scanner,2,2019_Aug_31_1654,MID,3.1.5,60.01039776432445,
LgPun,1500,0,18,18,18,,136.41579494596226,None,1500,138.4494004569715,None,None,138.4494004569715,None,1.6500000000000001,19,139.9824049489689,None,None,0,139.9824049489689,None,You lost $5.00!,15.0,4,16,0.34999999999999987,63.1578947368421,0.2992343885853188,[0],83.33333333333333,15,3,1,0.0045836850185878575,0.3545836850185877,,,029,Scanner,2,2019_Aug_31_1654,MID,3.1.5,60.01039776432445,
LgPun,3500,0,19,19,19,,142.01616314199055,None,3500,144.04930848797085,None,None,144.04930848797085,None,1.6500000000000001,20,147.58304278797004,None,1,1,147.58304278797004,None,You did not lose $5.00!,15.0,4,17,0.34999999999999987,65.0,0.297521664998315,"[0, 1]",83.33333333333333,15,3,None,,0.2769689819542691,0.2769689819542691,,029,Scanner,2,2019_Aug_31_1654,MID,3.1.5,60.01039776432445,
SmallReward,2500,0,20,20,20,,149.63360677595483,None,2500,151.66727800795343,None,None,151.66727800795343,None,1.6500000000000001,21,154.21662544296123,None,1,1,154.21662544296123,None,You won $0.20!,15.2,2,18,0.32999999999999985,66.66666666666666,0.29594217421254143,[],66.66666666666666,18,3,None,,0.2754087939974852,0.2754087939974852,Adjusting RT...,029,Scanner,2,2019_Aug_31_1654,MID,3.1.5,60.01039776432445,
LgPun,2000,0,21,21,21,,156.24977082095575,None,2000,158.28429762099404,None,None,158.28429762099404,None,1.6700000000000002,22,160.31722765398445,None,None,0,160.31722765398445,None,You lost $5.00!,10.2,4,19,0.32999999999999985,63.63636363636363,0.29594217421254143,[0],66.66666666666666,18,3,1,0.16541641298681498,0.4954164129868148,,,029,Scanner,2,2019_Aug_31_1654,MID,3.1.5,60.01039776432445,
Triangle,2000,0,22,22,22,,162.36727824795526,None,2000,164.40129576798063,None,None,164.40129576798063,None,1.6700000000000002,23,166.43446924199816,None,None,0,166.43446924199816,None,You did not win or lose anything!,10.2,3,19,0.32999999999999985,60.86956521739131,0.29594217421254143,[0],66.66666666666666,18,3,None,,0.4954164129868148,,,029,Scanner,2,2019_Aug_31_1654,MID,3.1.5,60.01039776432445,
LgPun,4000,0,23,23,23,,168.484479043982,None,4000,170.51788773795124,None,None,170.51788773795124,None,1.6700000000000002,24,174.55133436596952,None,None,0,174.55133436596952,None,You lost $5.00!,5.199999999999999,4,20,0.32999999999999985,58.333333333333336,0.29594217421254143,"[0, 0]",66.66666666666666,18,3,None,,0.4954164129868148,,,029,Scanner,2,2019_Aug_31_1654,MID,3.1.5,60.01039776432445,
LgPun,2000,0,24,24,24,,176.5846033919952,None,2000,178.61884879495483,None,None,178.61884879495483,None,1.6700000000000002,25,180.65168652299326,None,None,0,180.65168652299326,None,You lost $5.00!,0.1999999999999993,4,21,0.36999999999999983,56.00000000000001,0.29594217421254143,[],33.33333333333333,21,3,1,0.007511269010137767,0.3775112690101376,,Adjusting RT...,029,Scanner,2,2019_Aug_31_1654,MID,3.1.5,60.01039776432445,
SmallPun,1500,0,25,25,25,,182.6853243119549,None,1500,184.71933668199927,None,None,184.71933668199927,None,1.6300000000000001,26,186.25156996696023,None,1,1,186.25156996696023,None,You did not lose $0.20!,0.1999999999999993,5,22,0.36999999999999983,57.692307692307686,0.296637384663336,[1],33.33333333333333,21,3,None,,0.30637033097445965,0.30637033097445965,,029,Scanner,2,2019_Aug_31_1654,MID,3.1.5,60.01039776432445,
LgPun,3000,0,26,26,26,,188.28489377297228,None,3000,190.30863410700113,None,None,190.30863410700113,None,1.6300000000000001,27,193.35180735599715,None,1,1,193.35180735599715,None,You did not lose $5.00!,0.1999999999999993,4,23,0.36999999999999983,59.25925925925925,0.29704916299670003,"[1, 1]",33.33333333333333,21,3,None,,0.30322583799716085,0.30322583799716085,,029,Scanner,2,2019_Aug_31_1654,MID,3.1.5,60.01039776432445,
LgReward,2000,0,27,27,27,,195.41952297795797,None,2000,197.4428889149567,None,None,197.4428889149567,None,1.6300000000000001,28,199.49426800297806,None,1,1,199.49426800297806,None,You won $5.00!,5.199999999999999,1,24,0.38999999999999985,60.71428571428571,0.2967898515840609,[],50.0,24,3,None,,0.2926408689818345,0.2926408689818345,Adjusting RT...,029,Scanner,2,2019_Aug_31_1654,MID,3.1.5,60.01039776432445,
Triangle,1500,0,28,28,28,,201.5363553809584,None,1500,203.5606551579549,None,None,203.5606551579549,None,1.61,29,205.1031851589796,None,None,0,205.1031851589796,None,You did not win or lose anything!,5.199999999999999,3,24,0.38999999999999985,58.620689655172406,0.2967898515840609,[],50.0,24,3,1,0.08447161602089182,0.47447161602089166,,,029,Scanner,2,2019_Aug_31_1654,MID,3.1.5,60.01039776432445,
Triangle,2000,0,29,29,29,,207.15334489598172,None,2000,209.17855401098495,None,None,209.17855401098495,None,1.61,30,211.22083292499883,None,1,1,211.22083292499883,None,You did not win or lose anything!,5.199999999999999,3,24,0.38999999999999985,60.0,0.295702293104518,[],50.0,24,3,None,,0.2772137989522889,0.2772137989522889,,029,Scanner,2,2019_Aug_31_1654,MID,3.1.5,60.01039776432445,
SmallReward,4000,0,30,30,30,,213.27015309297713,None,4000,215.27934619697044,None,None,215.27934619697044,None,1.61,31,219.32898408500478,None,None,0,219.32898408500478,None,You did not win $0.20!,5.199999999999999,2,25,0.38999999999999985,58.06451612903226,0.295702293104518,[0],50.0,24,3,1,0.03335164702730253,0.4233516470273024,,,029,Scanner,2,2019_Aug_31_1654,MID,3.1.5,60.01039776432445,
Triangle,4000,0,31,31,31,,221.37098854297074,None,4000,223.3965524630039,None,None,223.3965524630039,None,1.61,32,227.437480226974,None,None,0,227.437480226974,None,You did not win or lose anything!,5.199999999999999,3,25,0.38999999999999985,56.25,0.295702293104518,[0],50.0,24,3,1,0.07695580896688625,0.4669558089668861,,,029,Scanner,2,2019_Aug_31_1654,MID,3.1.5,60.01039776432445,
SmallReward,3500,0,32,32,32,,229.48081805900438,None,3500,231.5138846769696,None,None,231.5138846769696,None,1.61,33,235.06565541098826,None,1,1,235.06565541098826,None,You won $0.20!,5.3999999999999995,2,26,0.38999999999999985,57.57575757575758,0.2978379380472593,"[0, 1]",50.0,24,3,None,,0.336279547016602,0.336279547016602,,029,Scanner,2,2019_Aug_31_1654,MID,3.1.5,60.01039776432445,
Triangle,1500,0,33,33,33,,237.1054909399827,None,1500,239.13193471898558,None,None,239.13193471898558,None,1.61,34,240.6666979509755,None,None,0,240.6666979509755,None,You did not win or lose anything!,5.3999999999999995,3,26,0.38999999999999985,55.88235294117647,0.2978379380472593,"[0, 1]",50.0,24,3,1,0.012175506039056927,0.4021755060390568,,,029,Scanner,2,2019_Aug_31_1654,MID,3.1.5,60.01039776432445,
SmallReward,1500,0,34,34,34,,242.71630361495772,None,1500,244.74972973798867,None,None,244.74972973798867,None,1.61,35,246.30040962295607,None,None,0,246.30040962295607,None,You did not win $0.20!,5.3999999999999995,2,27,0.36999999999999983,54.285714285714285,0.2978379380472593,[],66.66666666666666,27,3,1,0.11812440498033538,0.4881244049803352,,Adjusting RT...,029,Scanner,2,2019_Aug_31_1654,MID,3.1.5,60.01039776432445,
SmallPun,4000,0,35,35,35,,248.33867329196073,None,4000,250.36626733699813,None,None,250.36626733699813,None,1.6300000000000001,36,254.4058114530053,None,None,0,254.4058114530053,None,You lost $0.20!,5.199999999999999,5,28,0.36999999999999983,52.77777777777778,0.2978379380472593,[0],66.66666666666666,27,3,None,,0.4881244049803352,,,029,Scanner,2,2019_Aug_31_1654,MID,3.1.5,60.01039776432445,
Triangle,1500,0,36,36,36,,256.4400062210043,None,1500,258.46742077200906,None,None,258.46742077200906,None,1.6300000000000001,37,260.0064778229571,None,None,0,260.0064778229571,None,You did not win or lose anything!,5.199999999999999,3,28,0.36999999999999983,51.35135135135135,0.2978379380472593,[0],66.66666666666666,27,3,1,0.02355729299597442,0.39355729299597425,,,029,Scanner,2,2019_Aug_31_1654,MID,3.1.5,60.01039776432445,
SmallPun,2000,0,37,37,37,,262.0405417639995,None,2000,264.0682138229604,None,None,264.0682138229604,None,1.6300000000000001,38,266.1029514949769,None,1,1,266.1029514949769,None,You did not lose $0.20!,5.199999999999999,5,29,0.36999999999999983,52.63157894736842,0.29524362009542526,"[0, 1]",66.66666666666666,27,3,None,,0.24595157901057974,0.24595157901057974,,029,Scanner,2,2019_Aug_31_1654,MID,3.1.5,60.01039776432445,
LgReward,2500,0,38,38,38,,268.152418196958,None,2500,270.1867735069827,None,None,270.1867735069827,None,1.6300000000000001,39,272.73575515596895,None,1,1,272.73575515596895,None,You won $5.00!,10.2,1,30,0.38999999999999985,53.84615384615385,0.29342943775589536,[],49.99999999999999,30,3,None,,0.25714579096529633,0.25714579096529633,Adjusting RT...,029,Scanner,2,2019_Aug_31_1654,MID,3.1.5,60.01039776432445,
LgReward,1500,0,39,39,39,,274.78707595396554,None,1500,276.82039956597146,None,None,276.82039956597146,None,1.61,40,278.370032399951,None,None,0,278.370032399951,None,You did not win $5.00!,10.2,1,31,0.38999999999999985,52.5,0.29342943775589536,[0],49.99999999999999,30,3,1,0.11011913197580725,0.5001191319758072,,,029,Scanner,2,2019_Aug_31_1654,MID,3.1.5,60.01039776432445,
LgPun,1500,0,40,40,40,,280.4083628539811,None,1500,282.4376732269884,None,None,282.4376732269884,None,1.61,41,283.9708091779612,None,1,1,283.9708091779612,None,You did not lose $5.00!,10.2,4,32,0.38999999999999985,53.65853658536586,0.2933279931312427,"[0, 1]",49.99999999999999,30,3,None,,0.2911976560135372,0.2911976560135372,,029,Scanner,2,2019_Aug_31_1654,MID,3.1.5,60.01039776432445,
SmallPun,2000,0,41,41,41,,286.02505626896163,None,2000,288.05537431896664,None,None,288.05537431896664,None,1.61,42,290.0888337770011,None,1,1,290.0888337770011,None,You did not lose $0.20!,10.2,5,33,0.36999999999999983,54.761904761904766,0.29092985056037,[],66.66666666666666,33,3,None,,0.2381707140011713,0.2381707140011713,Adjusting RT...,029,Scanner,2,2019_Aug_31_1654,MID,3.1.5,60.01039776432445,
LgReward,1500,0,42,42,42,,292.13847745297244,None,1500,294.15606071497314,None,None,294.15606071497314,None,1.6300000000000001,43,295.7058785649715,None,1,1,295.7058785649715,None,You won $5.00!,15.2,1,34,0.36999999999999983,55.81395348837209,0.2929383100369402,[1],66.66666666666666,33,3,None,,0.339132877998054,0.339132877998054,,029,Scanner,2,2019_Aug_31_1654,MID,3.1.5,60.01039776432445,
SmallPun,1500,0,43,43,43,,297.75566172995605,None,1500,299.7904115229612,None,None,299.7904115229612,None,1.6300000000000001,44,301.32339208200574,None,1,1,301.32339208200574,None,You did not lose $0.20!,15.2,5,35,0.36999999999999983,56.81818181818182,0.2926011305558495,"[1, 1]",66.66666666666666,33,3,None,,0.2845088230096735,0.2845088230096735,,029,Scanner,2,2019_Aug_31_1654,MID,3.1.5,60.01039776432445,
SmallReward,1500,0,44,44,44,,303.37303660198813,None,1500,305.4076919700019,None,None,305.4076919700019,None,1.6300000000000001,45,306.95688199199503,None,None,0,306.95688199199503,None,You did not win $0.20!,15.2,2,36,0.3499999999999998,55.55555555555556,0.2926011305558495,[],66.66666666666666,36,3,1,0.1528480220003985,0.5028480220003984,,Adjusting RT...,029,Scanner,2,2019_Aug_31_1654,MID,3.1.5,60.01039776432445,
LgReward,4000,0,45,45,45,,309.0073937639827,None,4000,311.04111605597427,None,None,311.04111605597427,None,1.6500000000000001,46,315.09149064699886,None,1,1,315.09149064699886,None,You won $5.00!,20.2,1,37,0.3499999999999998,56.52173913043478,0.2911762743046543,[1],66.66666666666666,36,3,None,,0.2555548680247739,0.2555548680247739,,029,Scanner,2,2019_Aug_31_1654,MID,3.1.5,60.01039776432445,
Triangle,3000,0,46,46,46,,317.1275868539815,None,3000,319.1590014289832,None,None,319.1590014289832,None,1.6500000000000001,47,322.19227461796254,None,None,0,322.19227461796254,None,You did not win or lose anything!,20.2,3,37,0.3499999999999998,55.319148936170215,0.2911762743046543,[1],66.66666666666666,36,3,1,0.2208979880088009,0.5708979880088008,,,029,Scanner,2,2019_Aug_31_1654,MID,3.1.5,60.01039776432445,
SmallPun,3000,0,47,47,47,,324.22765991900815,None,3000,326.259940688964,None,None,326.259940688964,None,1.6500000000000001,48,329.2933668909827,None,1,1,329.2933668909827,None,You did not lose $0.20!,20.2,5,38,0.3499999999999998,56.25,0.29152300788512175,"[1, 1]",66.66666666666666,36,3,None,,0.30053808097727597,0.30053808097727597,,029,Scanner,2,2019_Aug_31_1654,MID,3.1.5,60.01039776432445,
SmallPun,2500,0,48,48,48,,331.3278913240065,None,2500,333.36132450198056,None,None,333.36132450198056,None,1.6500000000000001,49,335.8945691359695,None,None,0,335.8945691359695,None,You lost $0.20!,20.0,5,39,0.3299999999999998,55.10204081632652,0.29152300788512175,[],66.66666666666666,39,3,None,,0.30053808097727597,,Adjusting RT...,029,Scanner,2,2019_Aug_31_1654,MID,3.1.5,60.01039776432445,
SmallReward,2000,0,49,49,49,,337.9449633799959,None,2000,339.97916994296247,None,None,339.97916994296247,None,1.6700000000000002,50,342.0289850459667,None,1,1,342.0289850459667,None,You won $0.20!,20.2,2,40,0.3299999999999998,56.00000000000001,0.2908264447095072,[1],66.66666666666666,39,3,None,,0.27201923896791413,0.27201923896791413,,029,Scanner,2,2019_Aug_31_1654,MID,3.1.5,60.01039776432445,
,,,,,,,,,,,,,,,,,,,,,,,,,,,,,,,,,,,,,,,029,Scanner,2,2019_Aug_31_1654,MID,3.1.5,60.01039776432445,
