Condition,FixationDur,trials.thisRepN,trials.thisTrialN,trials.thisN,trials.thisIndex,TrialOrder,cueImage.started,cueImage.stopped,FixationDur,fixation.started,fixation.stopped,fixationResp.keys,fixationResp.started,fixationResp.stopped,feedbackDur,Trial counter,Target.started,Target.stopped,probeResp.keys,probeResp.corr,probeResp.started,probeResp.stopped,msg,TrackEarnings,TrialType,NonNeutralTrialsNum,probeDur,percentacc_total,meanrt,UserAcc,Acc,AdjTrial,AdjTrialInc,feedback_resp.keys,feedback_resp.rt,OverallRT,probeResp.rt,fixationResp.rt,AdjRTmsg,participant,prac_or_scan,run,date,expName,psychopyVersion,frameRate,
SmallPun,1500,0,0,0,0,TimeVersion11.csv,77.60838550899643,None,1500,79.61729006402311,None,None,79.61729006402311,None,1.54,1,81.13238458099659,None,None,0,81.13238458099659,None,You lost $0.20!,-0.2,5,1,0.45999999999999996,0.0,nan,[0],0,0,3,1,0.013289627997437492,0.47328962799743746,,,,031,Scanner,2,2019_Aug_29_1215,MID,3.1.5,24.035149426294588,
LgPun,1500,0,1,1,1,,83.15009593899595,None,1500,85.1536425500235,None,None,85.1536425500235,None,1.54,2,86.66811097500613,None,1,1,86.66811097500613,None,You did not lose $5.00!,-0.2,4,2,0.45999999999999996,50.0,0.2832789400126785,"[0, 1]",0,0,3,None,,0.2832789400126785,0.2832789400126785,,,031,Scanner,2,2019_Aug_29_1215,MID,3.1.5,24.035149426294588,
Triangle,3500,0,2,2,2,,88.69239813400782,None,3500,90.7000549689983,None,1,90.7000549689983,None,1.54,3,94.21691760901012,None,1,1,94.21691760901012,None,You did not win or lose anything!,-0.2,3,2,0.45999999999999996,66.66666666666666,0.325375829503173,"[0, 1]",0,0,3,None,,0.3674727189936675,0.3674727189936675,0.3653262899897527,,031,Scanner,2,2019_Aug_29_1215,MID,3.1.5,24.035149426294588,
Triangle,1500,0,3,3,3,,96.23434520000592,None,1500,98.25188586002332,None,None,98.25188586002332,None,1.54,4,99.75228463401436,None,1,1,99.75228463401436,None,You did not win or lose anything!,-0.2,3,2,0.45999999999999996,75.0,0.34395092533668503,"[0, 1]",0,0,3,None,,0.3811011170037091,0.3811011170037091,,,031,Scanner,2,2019_Aug_29_1215,MID,3.1.5,24.035149426294588,
LgReward,3500,0,4,4,4,,101.77502568301861,None,3500,103.78528425301192,None,None,103.78528425301192,None,1.54,5,107.30651806501555,None,None,0,107.30651806501555,None,You did not win $5.00!,-0.2,1,3,0.49999999999999994,60.0,0.34395092533668503,[],33.33333333333333,3,3,1,0.02793076800298877,0.5279307680029888,,,Adjusting RT...,031,Scanner,2,2019_Aug_29_1215,MID,3.1.5,24.035149426294588,
SmallReward,3000,0,5,5,5,,109.3184362440079,None,3000,111.33732295400114,None,None,111.33732295400114,None,1.5,6,114.35308105300646,None,1,1,114.35308105300646,None,You won $0.20!,0.0,2,4,0.49999999999999994,66.66666666666666,0.34528704374679364,[1],33.33333333333333,3,3,None,,0.3492953989771195,0.3492953989771195,,,031,Scanner,2,2019_Aug_29_1215,MID,3.1.5,24.035149426294588,
SmallPun,1500,0,6,6,6,,116.3588962329959,None,1500,118.37132924702018,None,None,118.37132924702018,None,1.5,7,119.8779845200188,None,None,0,119.8779845200188,None,You lost $0.20!,-0.2,5,5,0.49999999999999994,57.14285714285714,0.34528704374679364,"[1, 0]",33.33333333333333,3,3,None,,0.3492953989771195,,,,031,Scanner,2,2019_Aug_29_1215,MID,3.1.5,24.035149426294588,
SmallReward,1500,0,7,7,7,,121.90187814302044,None,1500,123.92180306502269,None,None,123.92180306502269,None,1.5,8,125.43801933800569,None,1,1,125.43801933800569,None,You won $0.20!,0.0,2,6,0.5,62.5,0.33570390479872003,[],49.99999999999999,6,3,None,,0.2973713490064256,0.2973713490064256,,Adjusting RT...,031,Scanner,2,2019_Aug_29_1215,MID,3.1.5,24.035149426294588,
LgReward,3000,0,8,8,8,,127.44530363800004,None,3000,129.45480865001446,None,None,129.45480865001446,None,1.5,9,132.47529151602066,None,1,1,132.47529151602066,None,You won $5.00!,5.0,1,7,0.5,66.66666666666666,0.32909025916887913,[1],49.99999999999999,6,3,None,,0.2960220310196746,0.2960220310196746,,,031,Scanner,2,2019_Aug_29_1215,MID,3.1.5,24.035149426294588,
LgPun,1500,0,9,9,9,,134.48769631501636,None,1500,136.49030677601695,None,None,136.49030677601695,None,1.5,10,138.00645284701022,None,1,1,138.00645284701022,None,You did not lose $5.00!,5.0,4,8,0.5,70.0,0.33735436843042926,"[1, 1]",49.99999999999999,6,3,None,,0.3869390239997301,0.3869390239997301,,,031,Scanner,2,2019_Aug_29_1215,MID,3.1.5,24.035149426294588,
SmallReward,2000,0,10,10,10,,140.02767464201315,None,2000,142.04029961500783,None,None,142.04029961500783,None,1.5,11,144.0631407680048,None,1,1,144.0631407680048,None,You won $0.20!,5.2,2,9,0.47,72.72727272727273,0.3310886107501574,[],83.33333333333333,9,3,None,,0.2872283069882542,0.2872283069882542,,Adjusting RT...,031,Scanner,2,2019_Aug_29_1215,MID,3.1.5,24.035149426294588,
LgReward,2000,0,11,11,11,,146.06935043100384,None,2000,148.07532554899808,None,None,148.07532554899808,None,1.53,12,150.10001582000405,None,None,0,150.10001582000405,None,You did not win $5.00!,5.2,1,10,0.47,66.66666666666666,0.3310886107501574,[0],83.33333333333333,9,3,None,,0.2872283069882542,,,,031,Scanner,2,2019_Aug_29_1215,MID,3.1.5,24.035149426294588,
Triangle,2500,0,12,12,12,,152.07083718900685,None,2500,154.07745134201832,None,None,154.07745134201832,None,1.53,13,156.5923041770002,None,None,0,156.5923041770002,None,You did not win or lose anything!,5.2,3,10,0.47,61.53846153846154,0.3310886107501574,[0],83.33333333333333,9,3,None,,0.2872283069882542,,,,031,Scanner,2,2019_Aug_29_1215,MID,3.1.5,24.035149426294588,
LgReward,1500,0,13,13,13,,158.57150279500638,None,1500,160.57700044001103,None,None,160.57700044001103,None,1.53,14,162.12695964201703,None,None,0,162.12695964201703,None,You did not win $5.00!,5.2,1,11,0.47,57.14285714285714,0.3310886107501574,"[0, 0]",83.33333333333333,9,3,None,,0.2872283069882542,,,,031,Scanner,2,2019_Aug_29_1215,MID,3.1.5,24.035149426294588,
LgPun,2500,0,14,14,14,,164.15383291299804,None,2500,166.1619683880126,None,None,166.1619683880126,None,1.53,15,168.6772561170219,None,None,0,168.6772561170219,None,You lost $5.00!,0.20000000000000018,4,12,0.49,53.333333333333336,0.3310886107501574,[],50.0,12,3,1,0.013791734003461897,0.5037917340034619,,,Adjusting RT...,031,Scanner,2,2019_Aug_29_1215,MID,3.1.5,24.035149426294588,
SmallReward,1500,0,15,15,15,,170.65426847801427,None,1500,172.6621330170019,None,None,172.6621330170019,None,1.51,16,174.18648971102084,None,1,1,174.18648971102084,None,You won $0.20!,0.4000000000000002,2,13,0.49,56.25,0.3249526925533751,[1],50.0,12,3,None,,0.275865346979117,0.275865346979117,,,031,Scanner,2,2019_Aug_29_1215,MID,3.1.5,24.035149426294588,
LgReward,1500,0,16,16,16,,176.19653218000894,None,1500,178.21172920102254,None,None,178.21172920102254,None,1.51,17,179.7294120080187,None,None,0,179.7294120080187,None,You did not win $5.00!,0.4000000000000002,1,14,0.49,52.94117647058824,0.3249526925533751,"[1, 0]",50.0,12,3,1,0.014976245001889765,0.5049762450018898,,,,031,Scanner,2,2019_Aug_29_1215,MID,3.1.5,24.035149426294588,
SmallPun,3500,0,17,17,17,,181.7381239440001,None,3500,183.74253510101698,None,None,183.74253510101698,None,1.51,18,187.26314693302265,None,1,1,187.26314693302265,None,You did not lose $0.20!,0.4000000000000002,5,15,0.5,55.55555555555556,0.33498268169933,[],33.33333333333333,15,3,None,,0.42525258401292376,0.42525258401292376,,Adjusting RT...,031,Scanner,2,2019_Aug_29_1215,MID,3.1.5,24.035149426294588,
LgPun,1500,0,18,18,18,,189.28007657499984,None,1500,191.28188354399754,None,None,191.28188354399754,None,1.5,19,192.7972820379946,None,1,1,192.7972820379946,None,You did not lose $5.00!,0.4000000000000002,4,16,0.5,57.89473684210527,0.33089998190883885,[1],33.33333333333333,15,3,None,,0.29007298400392756,0.29007298400392756,,,031,Scanner,2,2019_Aug_29_1215,MID,3.1.5,24.035149426294588,
LgPun,3500,0,19,19,19,,194.8220433590177,None,3500,196.83211091402336,None,None,196.83211091402336,None,1.5,20,200.3380381980096,None,None,0,200.3380381980096,None,You lost $5.00!,-4.6,4,17,0.5,55.00000000000001,0.33089998190883885,"[1, 0]",33.33333333333333,15,3,None,,0.29007298400392756,,,,031,Scanner,2,2019_Aug_29_1215,MID,3.1.5,24.035149426294588,
SmallReward,2500,0,20,20,20,,202.3641042470117,None,2500,204.3820648220135,None,None,204.3820648220135,None,1.5,21,206.89877782700933,None,None,0,206.89877782700933,None,You did not win $0.20!,-4.6,2,18,0.5,52.38095238095239,0.33089998190883885,[],49.99999999999999,18,3,1,0.003981101996032521,0.5039811019960325,,,Adjusting RT...,031,Scanner,2,2019_Aug_29_1215,MID,3.1.5,24.035149426294588,
LgPun,2000,0,21,21,21,,208.90580627101008,None,2000,210.91646347101778,None,None,210.91646347101778,None,1.5,22,212.92452621401753,None,None,0,212.92452621401753,None,You lost $5.00!,-9.6,4,19,0.5,50.0,0.33089998190883885,[0],49.99999999999999,18,3,1,0.3882582339865621,0.8882582339865621,,,,031,Scanner,2,2019_Aug_29_1215,MID,3.1.5,24.035149426294588,
Triangle,2000,0,22,22,22,,214.94812601301237,None,2000,216.96693610202055,None,None,216.96693610202055,None,1.5,23,218.96730218001176,None,None,0,218.96730218001176,None,You did not win or lose anything!,-9.6,3,19,0.5,47.82608695652174,0.33089998190883885,[0],49.99999999999999,18,3,None,,0.8882582339865621,,,,031,Scanner,2,2019_Aug_29_1215,MID,3.1.5,24.035149426294588,
LgPun,4000,0,23,23,23,,220.98904608900193,None,4000,223.00182271399535,None,None,223.00182271399535,None,1.5,24,227.00839356100187,None,1,1,227.00839356100187,None,You did not lose $5.00!,-9.6,4,20,0.5,50.0,0.33423779800068587,"[0, 1]",49.99999999999999,18,3,None,,0.370953775011003,0.370953775011003,,,031,Scanner,2,2019_Aug_29_1215,MID,3.1.5,24.035149426294588,
LgPun,2000,0,24,24,24,,229.03193714399822,None,2000,231.05261721200077,None,None,231.05261721200077,None,1.5,25,233.05293680602335,None,None,0,233.05293680602335,None,You lost $5.00!,-14.6,4,21,0.5,48.0,0.33423779800068587,[],33.33333333333333,21,3,None,,0.370953775011003,,,Adjusting RT...,031,Scanner,2,2019_Aug_29_1215,MID,3.1.5,24.035149426294588,
SmallPun,1500,0,25,25,25,,235.07373357200413,None,1500,237.086111437995,None,None,237.086111437995,None,1.5,26,238.59173543201177,None,1,1,238.59173543201177,None,You did not lose $0.20!,-14.6,5,22,0.5,50.0,0.33834645084705417,[1],33.33333333333333,21,3,None,,0.387650285003474,0.387650285003474,,,031,Scanner,2,2019_Aug_29_1215,MID,3.1.5,24.035149426294588,
LgPun,3000,0,26,26,26,,240.6158371680067,None,3000,242.6214883350185,None,None,242.6214883350185,None,1.5,27,245.6373640380043,None,None,0,245.6373640380043,None,You lost $5.00!,-19.6,4,23,0.5,48.148148148148145,0.33834645084705417,"[1, 0]",33.33333333333333,21,3,None,,0.387650285003474,,,,031,Scanner,2,2019_Aug_29_1215,MID,3.1.5,24.035149426294588,
LgReward,2000,0,27,27,27,,247.65748986799736,None,2000,249.67097913101315,None,None,249.67097913101315,None,1.5,28,251.68700307499967,None,1,1,251.68700307499967,None,You won $5.00!,-14.600000000000001,1,24,0.5,50.0,0.3436341525001418,[],49.99999999999999,24,3,None,,0.4123742739902809,0.4123742739902809,,Adjusting RT...,031,Scanner,2,2019_Aug_29_1215,MID,3.1.5,24.035149426294588,
Triangle,1500,0,28,28,28,,253.69936567900004,None,1500,255.70400557899848,None,None,255.70400557899848,None,1.5,29,257.22239803601406,None,None,0,257.22239803601406,None,You did not win or lose anything!,-14.600000000000001,3,24,0.5,48.275862068965516,0.3436341525001418,[],49.99999999999999,24,3,1,0.13682911099749617,0.6368291109974962,,,,031,Scanner,2,2019_Aug_29_1215,MID,3.1.5,24.035149426294588,
Triangle,2000,0,29,29,29,,259.24139162001666,None,2000,261.2558157140156,None,None,261.2558157140156,None,1.5,30,263.2548938260006,None,1,1,263.2548938260006,None,You did not win or lose anything!,-14.600000000000001,3,24,0.5,50.0,0.35029146446613596,[],49.99999999999999,24,3,None,,0.4434938319900539,0.4434938319900539,,,031,Scanner,2,2019_Aug_29_1215,MID,3.1.5,24.035149426294588,
SmallReward,4000,0,30,30,30,,265.28727716201684,None,4000,267.2904062810121,None,None,267.2904062810121,None,1.5,31,271.3255475409969,None,1,1,271.3255475409969,None,You won $0.20!,-14.400000000000002,2,25,0.5,51.61290322580645,0.3464420270611299,[1],49.99999999999999,24,3,None,,0.2887004659860395,0.2887004659860395,,,031,Scanner,2,2019_Aug_29_1215,MID,3.1.5,24.035149426294588,
Triangle,4000,0,31,31,31,,273.32477741801995,None,4000,275.3418018800148,None,None,275.3418018800148,None,1.5,32,279.34241969001596,None,None,0,279.34241969001596,None,You did not win or lose anything!,-14.400000000000002,3,25,0.5,50.0,0.3464420270611299,[1],49.99999999999999,24,3,1,0.06283982601598836,0.5628398260159884,,,,031,Scanner,2,2019_Aug_29_1215,MID,3.1.5,24.035149426294588,
SmallReward,3500,0,32,32,32,,281.37475826300215,None,3500,283.377087735018,None,None,283.377087735018,None,1.5,33,286.8968172589957,None,None,0,286.8968172589957,None,You did not win $0.20!,-14.400000000000002,2,26,0.5,48.484848484848484,0.3464420270611299,"[1, 0]",49.99999999999999,24,3,None,,0.5628398260159884,,,,031,Scanner,2,2019_Aug_29_1215,MID,3.1.5,24.035149426294588,
Triangle,1500,0,33,33,33,,288.90900715300813,None,1500,290.92686952999793,None,None,290.92686952999793,None,1.5,34,292.42746173602063,None,None,0,292.42746173602063,None,You did not win or lose anything!,-14.400000000000002,3,26,0.5,47.05882352941176,0.3464420270611299,"[1, 0]",49.99999999999999,24,3,None,,0.5628398260159884,,,,031,Scanner,2,2019_Aug_29_1215,MID,3.1.5,24.035149426294588,
SmallReward,1500,0,34,34,34,,294.4517213910003,None,1500,296.46004332700977,None,None,296.46004332700977,None,1.5,35,297.9820824119961,None,1,1,297.9820824119961,None,You won $0.20!,-14.200000000000003,2,27,0.48,48.57142857142857,0.34808071135022844,[],66.66666666666666,27,3,None,,0.3742996599758044,0.3742996599758044,,Adjusting RT...,031,Scanner,2,2019_Aug_29_1215,MID,3.1.5,24.035149426294588,
SmallPun,4000,0,35,35,35,,299.9925544889993,None,4000,302.01186265901197,None,None,302.01186265901197,None,1.52,36,306.0119581890176,None,None,0,306.0119581890176,None,You lost $0.20!,-14.400000000000002,5,28,0.48,47.22222222222222,0.34808071135022844,[0],66.66666666666666,27,3,1,0.002649851987371221,0.4826498519873712,,,,031,Scanner,2,2019_Aug_29_1215,MID,3.1.5,24.035149426294588,
Triangle,1500,0,36,36,36,,307.99333372799447,None,1500,310.01224301502225,None,None,310.01224301502225,None,1.52,37,311.51309246601886,None,None,0,311.51309246601886,None,You did not win or lose anything!,-14.400000000000002,3,28,0.48,45.94594594594595,0.34808071135022844,[0],66.66666666666666,27,3,1,0.08714314599637873,0.5671431459963787,,,,031,Scanner,2,2019_Aug_29_1215,MID,3.1.5,24.035149426294588,
SmallPun,2000,0,37,37,37,,313.49400025900104,None,2000,315.5003412030055,None,None,315.5003412030055,None,1.52,38,317.51327085401863,None,None,0,317.51327085401863,None,You lost $0.20!,-14.600000000000001,5,29,0.48,44.73684210526316,0.34808071135022844,"[0, 0]",66.66666666666666,27,3,None,,0.5671431459963787,,,,031,Scanner,2,2019_Aug_29_1215,MID,3.1.5,24.035149426294588,
LgReward,2500,0,38,38,38,,319.49357002502074,None,2500,321.5138167560217,None,None,321.5138167560217,None,1.52,39,324.0309255780012,None,None,0,324.0309255780012,None,You did not win $5.00!,-14.600000000000001,1,30,0.5,43.58974358974359,0.34808071135022844,[],33.33333333333333,30,3,None,,0.5671431459963787,,,Adjusting RT...,031,Scanner,2,2019_Aug_29_1215,MID,3.1.5,24.035149426294588,
LgReward,1500,0,39,39,39,,326.0363651950029,None,1500,328.0418979320093,None,None,328.0418979320093,None,1.5,40,329.56795877200784,None,1,1,329.56795877200784,None,You won $5.00!,-9.600000000000001,1,31,0.5,45.0,0.3472048122186809,[1],33.33333333333333,30,3,None,,0.3323145269823726,0.3323145269823726,,,031,Scanner,2,2019_Aug_29_1215,MID,3.1.5,24.035149426294588,
LgPun,1500,0,40,40,40,,331.5783965860028,None,1500,333.6007348819985,None,None,333.6007348819985,None,1.5,41,335.09922674600966,None,1,1,335.09922674600966,None,You did not lose $5.00!,-9.600000000000001,4,32,0.5,46.34146341463415,0.35067595020671816,"[1, 1]",33.33333333333333,30,3,None,,0.41315643399138935,0.41315643399138935,,,031,Scanner,2,2019_Aug_29_1215,MID,3.1.5,24.035149426294588,
SmallPun,2000,0,41,41,41,,337.1202027070103,None,2000,339.13295614899835,None,None,339.13295614899835,None,1.5,42,341.1381338800129,None,1,1,341.1381338800129,None,You did not lose $0.20!,-9.600000000000001,5,33,0.5,47.61904761904761,0.3528491172459326,[],50.0,33,3,None,,0.3941392909910064,0.3941392909910064,,Adjusting RT...,031,Scanner,2,2019_Aug_29_1215,MID,3.1.5,24.035149426294588,
LgReward,1500,0,42,42,42,,343.16212364201783,None,1500,345.16722869401565,None,None,345.16722869401565,None,1.5,43,346.6907982540142,None,None,0,346.6907982540142,None,You did not win $5.00!,-9.600000000000001,1,34,0.5,46.51162790697674,0.3528491172459326,[0],50.0,33,3,None,,0.3941392909910064,,,,031,Scanner,2,2019_Aug_29_1215,MID,3.1.5,24.035149426294588,
SmallPun,1500,0,43,43,43,,348.7039370140119,None,1500,350.716869699012,None,None,350.716869699012,None,1.5,44,352.22243374801474,None,1,1,352.22243374801474,None,You did not lose $0.20!,-9.600000000000001,5,35,0.5,47.72727272727273,0.35132673575814505,"[0, 1]",50.0,33,3,None,,0.3208791060023941,0.3208791060023941,,,031,Scanner,2,2019_Aug_29_1215,MID,3.1.5,24.035149426294588,
SmallReward,1500,0,44,44,44,,354.245973106008,None,1500,356.25102887599496,None,None,356.25102887599496,None,1.5,45,357.77519507400575,None,1,1,357.77519507400575,None,You won $0.20!,-9.400000000000002,2,36,0.47,48.888888888888886,0.3474064558157062,[],83.33333333333333,36,3,None,,0.2650805770244915,0.2650805770244915,,Adjusting RT...,031,Scanner,2,2019_Aug_29_1215,MID,3.1.5,24.035149426294588,
LgReward,4000,0,45,45,45,,359.78672410800937,None,4000,361.80247882101685,None,None,361.80247882101685,None,1.53,46,365.8200655130204,None,None,0,365.8200655130204,None,You did not win $5.00!,-9.400000000000002,1,37,0.47,47.82608695652174,0.3474064558157062,[0],83.33333333333333,36,3,1,0.080263946991181,0.550263946991181,,,,031,Scanner,2,2019_Aug_29_1215,MID,3.1.5,24.035149426294588,
Triangle,3000,0,46,46,46,,367.7888398079958,None,3000,369.7938057410065,None,None,369.7938057410065,None,1.53,47,372.80514872501954,None,None,0,372.80514872501954,None,You did not win or lose anything!,-9.400000000000002,3,37,0.47,46.808510638297875,0.3474064558157062,[0],83.33333333333333,36,3,1,0.045917365001514554,0.5159173650015145,,,,031,Scanner,2,2019_Aug_29_1215,MID,3.1.5,24.035149426294588,
SmallPun,3000,0,47,47,47,,374.8301008470007,None,3000,376.8380468499963,None,None,376.8380468499963,None,1.53,48,379.8549494080071,None,None,0,379.8549494080071,None,You lost $0.20!,-9.600000000000001,5,38,0.47,45.83333333333333,0.3474064558157062,"[0, 0]",83.33333333333333,36,3,1,0.015402003016788512,0.4854020030167885,,,,031,Scanner,2,2019_Aug_29_1215,MID,3.1.5,24.035149426294588,
SmallPun,2500,0,48,48,48,,381.8721104669967,None,2500,383.8891060820024,None,None,383.8891060820024,None,1.53,49,386.38949378801044,None,None,0,386.38949378801044,None,You lost $0.20!,-9.8,5,39,0.5,44.89795918367347,0.3474064558157062,[],33.33333333333333,39,3,1,0.006866726005682722,0.5068667260056827,,,Adjusting RT...,031,Scanner,2,2019_Aug_29_1215,MID,3.1.5,24.035149426294588,
SmallReward,2000,0,49,49,49,,388.4137845240184,None,2000,390.42424992102315,None,None,390.42424992102315,None,1.5,50,392.44404596902314,None,1,1,392.44404596902314,None,You won $0.20!,-9.600000000000001,2,40,0.5,46.0,0.3458818296064198,[1],33.33333333333333,39,3,None,,0.3123400530021172,0.3123400530021172,,,031,Scanner,2,2019_Aug_29_1215,MID,3.1.5,24.035149426294588,
,,,,,,,,,,,,,,,,,,,,,,,,,,,,,,,,,,,,,,,,031,Scanner,2,2019_Aug_29_1215,MID,3.1.5,24.035149426294588,
