Condition,FixationDur,trials.thisRepN,trials.thisTrialN,trials.thisN,trials.thisIndex,TrialOrder,cueImage.started,cueImage.stopped,FixationDur,fixation.started,fixation.stopped,fixationResp.keys,fixationResp.started,fixationResp.stopped,feedbackDur,Trial counter,Target.started,Target.stopped,probeResp.keys,probeResp.corr,probeResp.started,probeResp.stopped,msg,TrackEarnings,TrialType,NonNeutralTrialsNum,probeDur,percentacc_total,meanrt,UserAcc,Acc,AdjTrial,AdjTrialInc,fixationResp.rt,AdjRTmsg,probeResp.rt,participant,prac_or_scan,run,date,expName,psychopyVersion,frameRate,
LgPun,1500,0,0,0,0,TimeVersion10.csv,27.58765488100471,None,1500,29.59009708900703,None,None,29.59009708900703,None,1.62,1,31.107946689997334,None,None,0,31.107946689997334,None,You lost $5.00!,-5,4,1,0.37999999999999995,0.0,nan,[0],0,0,3,,,,033,Scanner,1,2019_Aug_27_1247,MID,3.1.5,24.00162285512307,
LgPun,2500,0,1,1,1,,33.083863696985645,None,2500,35.08530221498222,None,1,35.08530221498222,None,1.62,2,37.601123628992354,None,None,0,37.601123628992354,None,You lost $5.00!,-10,4,2,0.37999999999999995,0.0,nan,"[0, 0]",0,0,3,1.9517843759967946,,,033,Scanner,1,2019_Aug_27_1247,MID,3.1.5,24.00162285512307,
Triangle,2000,0,2,2,2,,39.584248556988314,None,2000,41.60104301100364,None,None,41.60104301100364,None,1.62,3,43.6011612220027,None,None,0,43.6011612220027,None,You did not win or lose anything!,-10,3,2,0.37999999999999995,0.0,nan,"[0, 0]",0,0,3,,,,033,Scanner,1,2019_Aug_27_1247,MID,3.1.5,24.00162285512307,
SmallPun,2500,0,3,3,3,,45.58573469298426,None,2500,47.60158447298454,None,None,47.60158447298454,None,1.62,4,50.10101741598919,None,None,0,50.10101741598919,None,You lost $0.20!,-10.2,5,3,0.44999999999999996,0.0,nan,[],0.0,3,3,,Adjusting RT...,,033,Scanner,1,2019_Aug_27_1247,MID,3.1.5,24.00162285512307,
LgReward,2000,0,4,4,4,,52.084699027007446,None,2000,54.10238681299961,None,None,54.10238681299961,None,1.55,5,56.1187304139894,None,1,1,56.1187304139894,None,You won $5.00!,-5.199999999999999,1,4,0.44999999999999996,20.0,0.28641377098392695,[1],0.0,3,3,,,0.28641377098392695,033,Scanner,1,2019_Aug_27_1247,MID,3.1.5,24.00162285512307,
Triangle,1500,0,5,5,5,,58.085362608981086,None,1500,60.103028256999096,None,None,60.103028256999096,None,1.55,6,61.602274245989975,None,1,1,61.602274245989975,None,You did not win or lose anything!,-5.199999999999999,3,4,0.44999999999999996,33.33333333333333,0.3186414675001288,[1],0.0,3,3,,,0.3508691640163306,033,Scanner,1,2019_Aug_27_1247,MID,3.1.5,24.00162285512307,
SmallPun,1500,0,6,6,6,,63.58535307299462,None,1500,65.6033785000036,None,None,65.6033785000036,None,1.55,7,67.10315853299107,None,1,1,67.10315853299107,None,You did not lose $0.20!,-5.199999999999999,5,5,0.44999999999999996,42.857142857142854,0.3067540690050616,"[1, 1]",0.0,3,3,,,0.2829792720149271,033,Scanner,1,2019_Aug_27_1247,MID,3.1.5,24.00162285512307,
Triangle,2500,0,7,7,7,,69.08580575199449,None,2500,71.10379167998326,None,1,71.10379167998326,None,1.55,8,73.60519507800927,None,None,0,73.60519507800927,None,You did not win or lose anything!,-5.199999999999999,3,5,0.44999999999999996,37.5,0.3067540690050616,"[1, 1]",0.0,3,3,2.374359174980782,,,033,Scanner,1,2019_Aug_27_1247,MID,3.1.5,24.00162285512307,
Triangle,3000,0,8,8,8,,75.5862358979939,None,3000,77.6059922069835,None,None,77.6059922069835,None,1.55,9,80.60600382898701,None,1,1,80.60600382898701,None,You did not win or lose anything!,-5.199999999999999,3,5,0.44999999999999996,44.44444444444444,0.3103490015055286,"[1, 1]",0.0,3,3,,,0.3211337990069296,033,Scanner,1,2019_Aug_27_1247,MID,3.1.5,24.00162285512307,
SmallReward,3500,0,9,9,9,,82.58614075998776,None,3500,84.60623276600381,None,None,84.60623276600381,None,1.55,10,88.12300519898417,None,1,1,88.12300519898417,None,You won $0.20!,-4.999999999999999,2,6,0.47,50.0,0.3117073700064793,[],50.0,6,3,,Adjusting RT...,0.3171408440102823,033,Scanner,1,2019_Aug_27_1247,MID,3.1.5,24.00162285512307,
SmallReward,2500,0,10,10,10,,90.08685568199144,None,2500,92.09486990299774,None,None,92.09486990299774,None,1.53,11,94.6239975419885,None,None,0,94.6239975419885,None,You did not win $0.20!,-4.999999999999999,2,7,0.47,45.45454545454545,0.3117073700064793,[0],50.0,6,3,,,,033,Scanner,1,2019_Aug_27_1247,MID,3.1.5,24.00162285512307,
LgReward,1500,0,11,11,11,,96.58684586698655,None,1500,98.59011969398125,None,None,98.59011969398125,None,1.53,12,100.11069272900932,None,1,1,100.11069272900932,None,You won $5.00!,8.881784197001252e-16,1,8,0.47,50.0,0.3171650301713574,"[0, 1]",50.0,6,3,,,0.3444533309957478,033,Scanner,1,2019_Aug_27_1247,MID,3.1.5,24.00162285512307,
Triangle,1500,0,12,12,12,,102.04520923399832,None,1500,104.05815339498804,None,None,104.05815339498804,None,1.53,13,105.56420807100949,None,None,0,105.56420807100949,None,You did not win or lose anything!,8.881784197001252e-16,3,8,0.47,46.15384615384615,0.3171650301713574,"[0, 1]",50.0,6,3,,,,033,Scanner,1,2019_Aug_27_1247,MID,3.1.5,24.00162285512307,
SmallReward,1500,0,13,13,13,,107.50392743299017,None,1500,109.51344647098449,None,None,109.51344647098449,None,1.53,14,111.03056280998862,None,1,1,111.03056280998862,None,You won $0.20!,0.2000000000000009,2,9,0.43999999999999995,50.0,0.31393873785938403,[],83.33333333333333,9,3,,Adjusting RT...,0.29458098398754373,033,Scanner,1,2019_Aug_27_1247,MID,3.1.5,24.00162285512307,
SmallReward,4000,0,14,14,14,,112.96254542999668,None,4000,114.97728677399573,None,None,114.97728677399573,None,1.56,15,119.0163574469916,None,None,0,119.0163574469916,None,You did not win $0.20!,0.2000000000000009,2,10,0.43999999999999995,46.666666666666664,0.31393873785938403,[0],83.33333333333333,9,3,,,,033,Scanner,1,2019_Aug_27_1247,MID,3.1.5,24.00162285512307,
LgReward,1500,0,15,15,15,,120.92147484398447,None,1500,122.93060771998717,None,None,122.93060771998717,None,1.56,16,124.46066808298929,None,None,0,124.46066808298929,None,You did not win $5.00!,0.2000000000000009,1,11,0.43999999999999995,43.75,0.31393873785938403,"[0, 0]",83.33333333333333,9,3,,,,033,Scanner,1,2019_Aug_27_1247,MID,3.1.5,24.00162285512307,
LgReward,3000,0,16,16,16,,126.37965583999176,None,3000,128.3948202629981,None,None,128.3948202629981,None,1.56,17,131.41087211298873,None,None,0,131.41087211298873,None,You did not win $5.00!,0.2000000000000009,1,12,0.4799999999999999,41.17647058823529,0.31393873785938403,[],33.33333333333333,12,3,,Adjusting RT...,,033,Scanner,1,2019_Aug_27_1247,MID,3.1.5,24.00162285512307,
SmallReward,1500,0,17,17,17,,133.33877649198985,None,1500,135.3480488320056,None,None,135.3480488320056,None,1.52,18,136.87849048900534,None,1,1,136.87849048900534,None,You won $0.20!,0.4000000000000009,2,13,0.4799999999999999,44.44444444444444,0.31527753725094954,[1],33.33333333333333,12,3,,,0.3246491329919081,033,Scanner,1,2019_Aug_27_1247,MID,3.1.5,24.00162285512307,
LgPun,1500,0,18,18,18,,138.79696147798677,None,1500,140.81209974599187,None,None,140.81209974599187,None,1.52,19,142.31163758100593,None,1,1,142.31163758100593,None,You did not lose $5.00!,0.4000000000000009,4,14,0.4799999999999999,47.368421052631575,0.3164133108900084,"[1, 1]",33.33333333333333,12,3,,,0.3254995000024792,033,Scanner,1,2019_Aug_27_1247,MID,3.1.5,24.00162285512307,
SmallReward,2000,0,19,19,19,,144.25761661998695,None,2000,146.2648384119966,None,None,146.2648384119966,None,1.52,20,148.28353551600594,None,1,1,148.28353551600594,None,You won $0.20!,0.600000000000001,2,15,0.49999999999999994,50.0,0.3173327437019907,[],50.0,15,3,,Adjusting RT...,0.3256076390098315,033,Scanner,1,2019_Aug_27_1247,MID,3.1.5,24.00162285512307,
SmallPun,3000,0,20,20,20,,150.21594754199032,None,3000,152.23190553300083,None,None,152.23190553300083,None,1.5,21,155.23241062098532,None,None,0,155.23241062098532,None,You lost $0.20!,0.40000000000000097,5,16,0.49999999999999994,47.61904761904761,0.3173327437019907,[0],50.0,15,3,,,,033,Scanner,1,2019_Aug_27_1247,MID,3.1.5,24.00162285512307,
LgReward,3500,0,21,21,21,,157.21817190898582,None,3500,159.23266824998427,None,None,159.23266824998427,None,1.5,22,162.74898521299474,None,1,1,162.74898521299474,None,You won $5.00!,5.400000000000001,1,17,0.49999999999999994,50.0,0.3228518224575303,"[0, 1]",50.0,15,3,,,0.37804261001292616,033,Scanner,1,2019_Aug_27_1247,MID,3.1.5,24.00162285512307,
LgPun,4000,0,22,22,22,,164.71534208700177,None,4000,166.73328665300505,None,None,166.73328665300505,None,1.5,23,170.73399209600757,None,1,1,170.73399209600757,None,You did not lose $5.00!,5.400000000000001,4,18,0.47,52.17391304347826,0.32578400617057923,[],83.33333333333333,18,3,,Adjusting RT...,0.3580380270141177,033,Scanner,1,2019_Aug_27_1247,MID,3.1.5,24.00162285512307,
Triangle,2000,0,23,23,23,,172.71550507299253,None,2000,174.73477912999806,None,None,174.73477912999806,None,1.53,24,176.734479139006,None,None,0,176.734479139006,None,You did not win or lose anything!,5.400000000000001,3,18,0.47,50.0,0.32578400617057923,[],83.33333333333333,18,3,,,,033,Scanner,1,2019_Aug_27_1247,MID,3.1.5,24.00162285512307,
LgReward,4000,0,24,24,24,,178.71576591199846,None,4000,180.73531745100627,None,None,180.73531745100627,None,1.53,25,184.7626427380019,None,None,0,184.7626427380019,None,You did not win $5.00!,5.400000000000001,1,19,0.47,48.0,0.32578400617057923,[0],83.33333333333333,18,3,,,,033,Scanner,1,2019_Aug_27_1247,MID,3.1.5,24.00162285512307,
LgPun,3000,0,25,25,25,,186.6743494629918,None,3000,188.68634190200828,None,None,188.68634190200828,None,1.53,26,191.69147439900553,None,1,1,191.69147439900553,None,You did not lose $5.00!,5.400000000000001,4,20,0.47,50.0,0.3266980369270851,"[0, 1]",83.33333333333333,18,3,,,0.3376664060051553,033,Scanner,1,2019_Aug_27_1247,MID,3.1.5,24.00162285512307,
Triangle,1500,0,26,26,26,,193.63321714600897,None,1500,195.6386046539992,None,None,195.6386046539992,None,1.53,27,197.154633765982,None,None,0,197.154633765982,None,You did not win or lose anything!,5.400000000000001,3,20,0.47,48.148148148148145,0.3266980369270851,"[0, 1]",83.33333333333333,18,3,,,,033,Scanner,1,2019_Aug_27_1247,MID,3.1.5,24.00162285512307,
LgPun,1500,0,27,27,27,,199.13333273198805,None,1500,201.13945324899396,None,None,201.13945324899396,None,1.53,28,202.65558016800787,None,1,1,202.65558016800787,None,You did not lose $5.00!,5.400000000000001,4,21,0.44999999999999996,50.0,0.32611653571698945,[],66.66666666666666,21,3,,Adjusting RT...,0.3185570199857466,033,Scanner,1,2019_Aug_27_1247,MID,3.1.5,24.00162285512307,
SmallReward,2000,0,28,28,28,,204.63370624699746,None,2000,206.63815581900417,None,None,206.63815581900417,None,1.55,29,208.66158569199615,None,1,1,208.66158569199615,None,You won $0.20!,5.600000000000001,2,22,0.44999999999999996,51.724137931034484,0.32427924846997486,[1],66.66666666666666,21,3,,,0.29855722701177,033,Scanner,1,2019_Aug_27_1247,MID,3.1.5,24.00162285512307,
LgPun,1500,0,29,29,29,,210.63576611800818,None,1500,212.64082708698697,None,None,212.64082708698697,None,1.55,30,214.15581613700488,None,1,1,214.15581613700488,None,You did not lose $5.00!,5.600000000000001,4,23,0.44999999999999996,53.333333333333336,0.3237784790035221,"[1, 1]",66.66666666666666,21,3,,,0.3162669370067306,033,Scanner,1,2019_Aug_27_1247,MID,3.1.5,24.00162285512307,
SmallReward,1500,0,30,30,30,,216.13434751098976,None,1500,218.14078146399697,None,None,218.14078146399697,None,1.55,31,219.66409288198338,None,1,1,219.66409288198338,None,You won $0.20!,5.800000000000002,2,24,0.41999999999999993,54.83870967741935,0.32408870882628593,[],83.33333333333333,24,3,,Adjusting RT...,0.3290523859905079,033,Scanner,1,2019_Aug_27_1247,MID,3.1.5,24.00162285512307,
SmallPun,3500,0,31,31,31,,221.6338374640036,None,3500,223.64050088700606,None,1,223.64050088700606,None,1.58,32,227.15824302498368,None,None,0,227.15824302498368,None,You lost $0.20!,5.600000000000001,5,25,0.41999999999999993,53.125,0.32408870882628593,[0],83.33333333333333,24,3,0.4416479880164843,,,033,Scanner,1,2019_Aug_27_1247,MID,3.1.5,24.00162285512307,
Triangle,4000,0,32,32,32,,229.13458072199137,None,4000,231.14208296799916,None,None,231.14208296799916,None,1.58,33,235.1584846850019,None,None,0,235.1584846850019,None,You did not win or lose anything!,5.600000000000001,3,25,0.41999999999999993,51.515151515151516,0.32408870882628593,[0],83.33333333333333,24,3,,,,033,Scanner,1,2019_Aug_27_1247,MID,3.1.5,24.00162285512307,
SmallPun,2000,0,33,33,33,,237.13497508200817,None,2000,239.14356746998965,None,None,239.14356746998965,None,1.58,34,241.16009568798472,None,1,1,241.16009568798472,None,You did not lose $0.20!,5.600000000000001,5,26,0.41999999999999993,52.94117647058824,0.32319723411476137,"[0, 1]",83.33333333333333,24,3,,,0.3080421640188433,033,Scanner,1,2019_Aug_27_1247,MID,3.1.5,24.00162285512307,
LgReward,1500,0,34,34,34,,243.13546338799642,None,1500,245.14390302900574,None,None,245.14390302900574,None,1.58,35,246.6681254709838,None,None,0,246.6681254709838,None,You did not win $5.00!,5.600000000000001,1,27,0.3999999999999999,51.42857142857142,0.32319723411476137,[],66.66666666666666,27,3,,Adjusting RT...,,033,Scanner,1,2019_Aug_27_1247,MID,3.1.5,24.00162285512307,
SmallPun,1500,0,35,35,35,,248.63558948400896,None,1500,250.64469044699217,None,None,250.64469044699217,None,1.6,36,252.1603169379814,None,None,0,252.1603169379814,None,You lost $0.20!,5.400000000000001,5,28,0.3999999999999999,50.0,0.32319723411476137,[0],66.66666666666666,27,3,,,,033,Scanner,1,2019_Aug_27_1247,MID,3.1.5,24.00162285512307,
LgReward,2000,0,36,36,36,,254.0939274560078,None,2000,256.1118893850071,None,None,256.1118893850071,None,1.6,37,258.1282306840003,None,None,0,258.1282306840003,None,You did not win $5.00!,5.400000000000001,1,29,0.3999999999999999,48.64864864864865,0.32319723411476137,"[0, 0]",66.66666666666666,27,3,,,,033,Scanner,1,2019_Aug_27_1247,MID,3.1.5,24.00162285512307,
LgReward,1500,0,37,37,37,,260.05423024698393,None,1500,262.0618031290069,None,None,262.0618031290069,None,1.6,38,263.5835377080075,None,None,0,263.5835377080075,None,You did not win $5.00!,5.400000000000001,1,30,0.4499999999999999,47.368421052631575,0.32319723411476137,[],16.666666666666664,30,3,,Adjusting RT...,,033,Scanner,1,2019_Aug_27_1247,MID,3.1.5,24.00162285512307,
SmallPun,4000,0,38,38,38,,265.5120041779883,None,4000,267.52994080999633,None,None,267.52994080999633,None,1.55,39,271.530573327007,None,1,1,271.530573327007,None,You did not lose $0.20!,5.400000000000001,5,31,0.4499999999999999,48.717948717948715,0.3235307825824221,[1],16.666666666666664,30,3,,,0.329534655000316,033,Scanner,1,2019_Aug_27_1247,MID,3.1.5,24.00162285512307,
LgPun,2000,0,39,39,39,,273.51175607100595,None,2000,275.5310314229864,None,None,275.5310314229864,None,1.55,40,277.53081316899625,None,1,1,277.53081316899625,None,You did not lose $5.00!,5.400000000000001,4,32,0.4499999999999999,50.0,0.32372058985347396,"[1, 1]",16.666666666666664,30,3,,,0.3273269280034583,033,Scanner,1,2019_Aug_27_1247,MID,3.1.5,24.00162285512307,
Triangle,3500,0,40,40,40,,279.51190444099484,None,3500,281.53179200700833,None,None,281.53179200700833,None,1.55,41,285.0321520699945,None,1,1,285.0321520699945,None,You did not win or lose anything!,5.400000000000001,3,32,0.4499999999999999,51.21951219512195,0.323440885764458,"[1, 1]",16.666666666666664,30,3,,,0.3178468039841391,033,Scanner,1,2019_Aug_27_1247,MID,3.1.5,24.00162285512307,
SmallReward,1500,0,41,41,41,,287.0122933649982,None,1500,289.0189953990048,None,None,289.0189953990048,None,1.55,42,290.54867005799315,None,None,0,290.54867005799315,None,You did not win $0.20!,5.400000000000001,2,33,0.4899999999999999,50.0,0.323440885764458,[],33.33333333333333,33,3,,Adjusting RT...,,033,Scanner,1,2019_Aug_27_1247,MID,3.1.5,24.00162285512307,
SmallPun,2000,0,42,42,42,,292.5123809700017,None,2000,294.5335566889844,None,None,294.5335566889844,None,1.5100000000000002,43,296.5340737589868,None,1,1,296.5340737589868,None,You did not lose $0.20!,5.400000000000001,5,34,0.4899999999999999,51.162790697674424,0.32265182259354996,[1],33.33333333333333,33,3,,,0.30608149600448087,033,Scanner,1,2019_Aug_27_1247,MID,3.1.5,24.00162285512307,
SmallReward,3000,0,43,43,43,,298.51278607698623,None,3000,300.5190599990019,None,None,300.5190599990019,None,1.5100000000000002,44,303.541697173001,None,1,1,303.541697173001,None,You won $0.20!,5.600000000000001,2,35,0.4899999999999999,52.27272727272727,0.32212039021997835,"[1, 1]",33.33333333333333,33,3,,,0.31042887800140306,033,Scanner,1,2019_Aug_27_1247,MID,3.1.5,24.00162285512307,
SmallPun,1500,0,44,44,44,,305.5136038539931,None,1500,307.5193464809854,None,None,307.5193464809854,None,1.5100000000000002,45,309.03593453700887,None,None,0,309.03593453700887,None,You lost $0.20!,5.400000000000001,5,36,0.46999999999999986,51.11111111111111,0.32212039021997835,[],66.66666666666666,36,3,,Adjusting RT...,,033,Scanner,1,2019_Aug_27_1247,MID,3.1.5,24.00162285512307,
LgPun,3500,0,45,45,45,,311.0130659150018,None,3500,313.019805332995,None,None,313.019805332995,None,1.5300000000000002,46,316.53667279100046,None,1,1,316.53667279100046,None,You did not lose $5.00!,5.400000000000001,4,37,0.46999999999999986,52.17391304347826,0.32301012958487263,[1],66.66666666666666,36,3,,,0.3434741349774413,033,Scanner,1,2019_Aug_27_1247,MID,3.1.5,24.00162285512307,
Triangle,1500,0,46,46,46,,318.5136441309878,None,1500,320.52047792400117,None,None,320.52047792400117,None,1.5300000000000002,47,322.0371860860032,None,1,1,322.0371860860032,None,You did not win or lose anything!,5.400000000000001,3,37,0.46999999999999986,53.191489361702125,0.32388918680138884,[1],66.66666666666666,36,3,,,0.3449865599977784,033,Scanner,1,2019_Aug_27_1247,MID,3.1.5,24.00162285512307,
LgReward,2500,0,47,47,47,,324.01401975000044,None,2500,326.0211933559913,None,None,326.0211933559913,None,1.5300000000000002,48,328.5443273029814,None,1,1,328.5443273029814,None,You won $5.00!,10.400000000000002,1,38,0.46999999999999986,54.166666666666664,0.3225789161940786,"[1, 1]",66.66666666666666,36,3,,,0.2898221510113217,033,Scanner,1,2019_Aug_27_1247,MID,3.1.5,24.00162285512307,
LgPun,2000,0,48,48,48,,330.47442665699054,None,2000,332.4787333860004,None,None,332.4787333860004,None,1.5300000000000002,49,334.4912048559927,None,1,1,334.4912048559927,None,You did not lose $5.00!,10.400000000000002,4,39,0.43999999999999984,55.10204081632652,0.32166620203794016,[],83.33333333333333,39,3,,Adjusting RT...,0.2979356339783408,033,Scanner,1,2019_Aug_27_1247,MID,3.1.5,24.00162285512307,
SmallPun,1500,0,49,49,49,,336.4725395209971,None,1500,338.49018278199947,None,None,338.49018278199947,None,1.56,50,339.9896994649898,None,None,0,339.9896994649898,None,You lost $0.20!,10.200000000000003,5,40,0.43999999999999984,54.0,0.32166620203794016,[0],83.33333333333333,39,3,,,,033,Scanner,1,2019_Aug_27_1247,MID,3.1.5,24.00162285512307,
,,,,,,,,,,,,,,,,,,,,,,,,,,,,,,,,,,,,,033,Scanner,1,2019_Aug_27_1247,MID,3.1.5,24.00162285512307,
