Condition,FixationDur,trials.thisRepN,trials.thisTrialN,trials.thisN,trials.thisIndex,TrialOrder,cueImage.started,cueImage.stopped,FixationDur,fixation.started,fixation.stopped,fixationResp.keys,fixationResp.started,fixationResp.stopped,feedbackDur,Trial counter,Target.started,Target.stopped,probeResp.keys,probeResp.corr,probeResp.started,probeResp.stopped,msg,TrackEarnings,TrialType,NonNeutralTrialsNum,probeDur,percentacc_total,meanrt,UserAcc,Acc,AdjTrial,AdjTrialInc,probeResp.rt,fixationResp.rt,AdjRTmsg,participant,prac_or_scan,run,date,expName,psychopyVersion,frameRate,
LgPun,1500,0,0,0,0,TimeVersion13.csv,32.70047729398357,None,1500,34.70754803600721,None,None,34.70754803600721,None,1.63,1,36.223417781002354,None,None,0,36.223417781002354,None,You lost $5.00!,-5,4,1,0.37,0.0,nan,[0],0,0,3,,,,034,Scanner,1,2019_Aug_27_0920,MID,3.1.5,24.003985757773233,
LgReward,2000,0,1,1,1,,38.20017043498228,None,2000,40.208176874992205,None,None,40.208176874992205,None,1.63,2,42.223897226998815,None,1,1,42.223897226998815,None,You won $5.00!,0,1,2,0.37,50.0,0.0524475839920342,"[0, 1]",0,0,3,0.0524475839920342,,,034,Scanner,1,2019_Aug_27_0920,MID,3.1.5,24.003985757773233,
Triangle,4000,0,2,2,2,,44.20050316498964,None,4000,46.204981474991655,None,1,46.204981474991655,None,1.63,3,50.21864894600003,None,None,0,50.21864894600003,None,You did not win or lose anything!,0,3,2,0.37,33.33333333333333,0.0524475839920342,"[0, 1]",0,0,3,,2.431367899000179,,034,Scanner,1,2019_Aug_27_0920,MID,3.1.5,24.003985757773233,
LgPun,1500,0,3,3,3,,52.202972333005164,None,1500,54.2100828269904,None,None,54.2100828269904,None,1.63,4,55.726077047991566,None,None,0,55.726077047991566,None,You lost $5.00!,-5,4,3,0.41,25.0,0.0524475839920342,[],33.33333333333333,3,3,,,Adjusting RT...,034,Scanner,1,2019_Aug_27_0920,MID,3.1.5,24.003985757773233,
LgReward,1500,0,4,4,4,,57.701722609985154,None,1500,59.707429650006816,None,None,59.707429650006816,None,1.59,5,61.23019586998271,None,None,0,61.23019586998271,None,You did not win $5.00!,-5,1,4,0.41,20.0,0.0524475839920342,[0],33.33333333333333,3,3,,,,034,Scanner,1,2019_Aug_27_0920,MID,3.1.5,24.003985757773233,
LgPun,2000,0,5,5,5,,63.2033497869852,None,2000,65.20708135300083,None,None,65.20708135300083,None,1.59,6,67.22778624598868,None,1,1,67.22778624598868,None,You did not lose $5.00!,-5,4,5,0.41,33.33333333333333,0.13450022749020718,"[0, 1]",33.33333333333333,3,3,0.21655287098838016,,,034,Scanner,1,2019_Aug_27_0920,MID,3.1.5,24.003985757773233,
Triangle,3000,0,6,6,6,,69.20161938399542,None,3000,71.21251359800226,None,1,71.21251359800226,None,1.59,7,74.21936786800507,None,None,0,74.21936786800507,None,You did not win or lose anything!,-5,3,5,0.41,28.57142857142857,0.13450022749020718,"[0, 1]",33.33333333333333,3,3,,2.2607205039821565,,034,Scanner,1,2019_Aug_27_0920,MID,3.1.5,24.003985757773233,
SmallReward,2000,0,7,7,7,,76.20228649300407,None,2000,78.21326521600713,None,None,78.21326521600713,None,1.59,8,80.2448501290055,None,None,0,80.2448501290055,None,You did not win $0.20!,-5,2,6,0.44999999999999996,25.0,0.13450022749020718,[],33.33333333333333,6,3,,,Adjusting RT...,034,Scanner,1,2019_Aug_27_0920,MID,3.1.5,24.003985757773233,
Triangle,2000,0,8,8,8,,82.20292427798267,None,2000,84.21407924999949,None,None,84.21407924999949,None,1.55,9,86.21952266799053,None,1,1,86.21952266799053,None,You did not win or lose anything!,-5,3,6,0.44999999999999996,33.33333333333333,0.198262753993428,[],33.33333333333333,6,3,0.32578780699986964,,,034,Scanner,1,2019_Aug_27_0920,MID,3.1.5,24.003985757773233,
SmallReward,2500,0,9,9,9,,88.20297845700406,None,2500,90.20884689199738,None,None,90.20884689199738,None,1.55,10,92.73198540098383,None,1,1,92.73198540098383,None,You won $0.20!,-4.8,2,7,0.44999999999999996,40.0,0.2170355867492617,[1],33.33333333333333,6,3,0.27335408501676284,,,034,Scanner,1,2019_Aug_27_0920,MID,3.1.5,24.003985757773233,
Triangle,3500,0,10,10,10,,94.70339678000892,None,3500,96.71483711700421,None,None,96.71483711700421,None,1.55,11,100.2221264129912,None,1,1,100.2221264129912,None,You did not win or lose anything!,-4.8,3,7,0.44999999999999996,45.45454545454545,0.2336487416003365,[1],33.33333333333333,6,3,0.3001013610046357,,,034,Scanner,1,2019_Aug_27_0920,MID,3.1.5,24.003985757773233,
SmallReward,4000,0,11,11,11,,102.20345571098733,None,4000,104.21600853998098,None,None,104.21600853998098,None,1.55,12,108.23398006000207,None,1,1,108.23398006000207,None,You won $0.20!,-4.6,2,8,0.44999999999999996,50.0,0.24492372916817354,"[1, 1]",33.33333333333333,6,3,0.30129866700735874,,,034,Scanner,1,2019_Aug_27_0920,MID,3.1.5,24.003985757773233,
SmallPun,4000,0,12,12,12,,110.20386683900142,None,4000,112.21731762500713,None,None,112.21731762500713,None,1.55,13,116.22004340498825,None,1,1,116.22004340498825,None,You did not lose $0.20!,-4.6,5,9,0.42999999999999994,53.84615384615385,0.2576785075736033,[],66.66666666666666,9,3,0.3342071780061815,,Adjusting RT...,034,Scanner,1,2019_Aug_27_0920,MID,3.1.5,24.003985757773233,
SmallReward,1500,0,13,13,13,,118.20413137000287,None,1500,120.21022085298318,None,None,120.21022085298318,None,1.57,14,121.7365704359836,None,None,0,121.7365704359836,None,You did not win $0.20!,-4.6,2,10,0.42999999999999994,50.0,0.2576785075736033,[0],66.66666666666666,9,3,,,,034,Scanner,1,2019_Aug_27_0920,MID,3.1.5,24.003985757773233,
Triangle,1500,0,14,14,14,,123.66332622800837,None,1500,125.67026150098536,None,None,125.67026150098536,None,1.57,15,127.18607895000605,None,None,0,127.18607895000605,None,You did not win or lose anything!,-4.6,3,10,0.42999999999999994,46.666666666666664,0.2576785075736033,[0],66.66666666666666,9,3,,,,034,Scanner,1,2019_Aug_27_0920,MID,3.1.5,24.003985757773233,
LgPun,1500,0,15,15,15,,129.12119785899995,None,1500,131.1376701539848,None,None,131.1376701539848,None,1.57,16,132.63819407200208,None,1,1,132.63819407200208,None,You did not lose $5.00!,-4.6,4,11,0.42999999999999994,50.0,0.2631118206263636,"[0, 1]",66.66666666666666,9,3,0.3011450119956862,,,034,Scanner,1,2019_Aug_27_0920,MID,3.1.5,24.003985757773233,
SmallPun,2000,0,16,16,16,,134.5798865329998,None,2000,136.58632204000605,None,None,136.58632204000605,None,1.57,17,138.60327793899341,None,None,0,138.60327793899341,None,You lost $0.20!,-4.8,5,12,0.4099999999999999,47.05882352941176,0.2631118206263636,[],66.66666666666666,12,3,,,Adjusting RT...,034,Scanner,1,2019_Aug_27_0920,MID,3.1.5,24.003985757773233,
SmallReward,3000,0,17,17,17,,140.53838286700193,None,3000,142.5544927319861,None,None,142.5544927319861,None,1.59,18,145.57125410900335,None,None,0,145.57125410900335,None,You did not win $0.20!,-4.8,2,13,0.4099999999999999,44.44444444444444,0.2631118206263636,[0],66.66666666666666,12,3,,,,034,Scanner,1,2019_Aug_27_0920,MID,3.1.5,24.003985757773233,
LgPun,3500,0,18,18,18,,147.54056486699847,None,3500,149.55619705299614,None,None,149.55619705299614,None,1.59,19,153.05598314799136,None,None,0,153.05598314799136,None,You lost $5.00!,-9.8,4,14,0.4099999999999999,42.10526315789473,0.2631118206263636,"[0, 0]",66.66666666666666,12,3,,,,034,Scanner,1,2019_Aug_27_0920,MID,3.1.5,24.003985757773233,
Triangle,1500,0,19,19,19,,155.04013438199763,None,1500,157.0448258779943,None,None,157.0448258779943,None,1.59,20,158.5575677320012,None,None,0,158.5575677320012,None,You did not win or lose anything!,-9.8,3,14,0.4099999999999999,40.0,0.2631118206263636,"[0, 0]",66.66666666666666,12,3,,,,034,Scanner,1,2019_Aug_27_0920,MID,3.1.5,24.003985757773233,
LgPun,1500,0,20,20,20,,160.5381807849917,None,1500,162.55710465699667,None,None,162.55710465699667,None,1.59,21,164.0578743960068,None,None,0,164.0578743960068,None,You lost $5.00!,-14.8,4,15,0.4599999999999999,38.095238095238095,0.2631118206263636,[],16.666666666666664,15,3,,,Adjusting RT...,034,Scanner,1,2019_Aug_27_0920,MID,3.1.5,24.003985757773233,
SmallPun,3500,0,21,21,21,,166.03970257000765,None,3500,168.04478331000428,None,None,168.04478331000428,None,1.54,22,171.55862610499025,None,1,1,171.55862610499025,None,You did not lose $0.20!,-14.8,5,16,0.4599999999999999,40.909090909090914,0.2702895327788105,[1],16.666666666666664,15,3,0.32771122999838553,,,034,Scanner,1,2019_Aug_27_0920,MID,3.1.5,24.003985757773233,
SmallReward,1500,0,22,22,22,,173.53941124200355,None,1500,175.5593707539956,None,None,175.5593707539956,None,1.54,23,177.07505193498218,None,1,1,177.07505193498218,None,You won $0.20!,-14.600000000000001,2,17,0.4599999999999999,43.47826086956522,0.2761942065029871,"[1, 1]",16.666666666666664,15,3,0.3293362700205762,,,034,Scanner,1,2019_Aug_27_0920,MID,3.1.5,24.003985757773233,
SmallPun,2500,0,23,23,23,,179.0395768939925,None,2500,181.05995996599086,None,None,181.05995996599086,None,1.54,24,183.5600279640057,None,1,1,183.5600279640057,None,You did not lose $0.20!,-14.600000000000001,5,18,0.4799999999999999,45.83333333333333,0.2794633411844684,[],50.0,18,3,0.31215468799928203,,Adjusting RT...,034,Scanner,1,2019_Aug_27_0920,MID,3.1.5,24.003985757773233,
SmallPun,1500,0,24,24,24,,185.54037527300534,None,1500,187.5609110679943,None,None,187.5609110679943,None,1.52,25,189.06142943599843,None,None,0,189.06142943599843,None,You lost $0.20!,-14.8,5,19,0.4799999999999999,44.0,0.2794633411844684,[0],50.0,18,3,,,,034,Scanner,1,2019_Aug_27_0920,MID,3.1.5,24.003985757773233,
LgPun,2500,0,25,25,25,,190.99917480300064,None,2500,193.01123301699408,None,1,193.01123301699408,None,1.52,26,195.5166105669923,None,1,1,195.5166105669923,None,You did not lose $5.00!,-14.8,4,20,0.4799999999999999,46.15384615384615,0.2801504885016281,"[0, 1]",50.0,18,3,0.28770910899038427,0.35800548500264995,,034,Scanner,1,2019_Aug_27_0920,MID,3.1.5,24.003985757773233,
SmallReward,1500,0,26,26,26,,197.45787827999447,None,1500,199.47836656399886,None,None,199.47836656399886,None,1.52,27,200.98626166398753,None,1,1,200.98626166398753,None,You won $0.20!,-14.600000000000001,2,21,0.44999999999999996,48.148148148148145,0.2830683698479194,[],83.33333333333333,21,3,0.3180829460034147,,Adjusting RT...,034,Scanner,1,2019_Aug_27_0920,MID,3.1.5,24.003985757773233,
LgReward,1500,0,27,27,27,,202.91798603598727,None,1500,204.93003695699736,None,None,204.93003695699736,None,1.55,28,206.44618114398327,None,1,1,206.44618114398327,None,You won $5.00!,-9.600000000000001,1,22,0.44999999999999996,50.0,0.2850713979299014,[1],83.33333333333333,21,3,0.31111076299566776,,,034,Scanner,1,2019_Aug_27_0920,MID,3.1.5,24.003985757773233,
LgReward,2500,0,28,28,28,,208.41857519099722,None,2500,210.4306013410096,None,None,210.4306013410096,None,1.55,29,212.9478894729982,None,1,1,212.9478894729982,None,You won $5.00!,-4.600000000000001,1,23,0.44999999999999996,51.724137931034484,0.2850294618673312,"[1, 1]",83.33333333333333,21,3,0.2844423569913488,,,034,Scanner,1,2019_Aug_27_0920,MID,3.1.5,24.003985757773233,
SmallPun,2000,0,29,29,29,,214.91841647200636,None,2000,216.93097772699548,None,None,216.93097772699548,None,1.55,30,218.93869204100338,None,1,1,218.93869204100338,None,You did not lose $0.20!,-4.600000000000001,5,24,0.41999999999999993,53.333333333333336,0.28699782749936276,[],83.33333333333333,24,3,0.31652331197983585,,Adjusting RT...,034,Scanner,1,2019_Aug_27_0920,MID,3.1.5,24.003985757773233,
SmallReward,1500,0,30,30,30,,220.91596777600353,None,1500,222.9323340219853,None,None,222.9323340219853,None,1.58,31,224.45054186700145,None,None,0,224.45054186700145,None,You did not win $0.20!,-4.600000000000001,2,25,0.41999999999999993,51.61290322580645,0.28699782749936276,[0],83.33333333333333,24,3,,,,034,Scanner,1,2019_Aug_27_0920,MID,3.1.5,24.003985757773233,
SmallPun,1500,0,31,31,31,,226.4180221800052,None,1500,228.4223279680009,None,None,228.4223279680009,None,1.58,32,229.93306664199918,None,None,0,229.93306664199918,None,You lost $0.20!,-4.800000000000002,5,26,0.41999999999999993,50.0,0.28699782749936276,"[0, 0]",83.33333333333333,24,3,,,,034,Scanner,1,2019_Aug_27_0920,MID,3.1.5,24.003985757773233,
Triangle,2500,0,32,32,32,,231.91775053800666,None,2500,233.93260803699377,None,None,233.93260803699377,None,1.58,33,236.43230046299868,None,None,0,236.43230046299868,None,You did not win or lose anything!,-4.800000000000002,3,26,0.41999999999999993,48.484848484848484,0.28699782749936276,"[0, 0]",83.33333333333333,24,3,,,,034,Scanner,1,2019_Aug_27_0920,MID,3.1.5,24.003985757773233,
LgReward,1500,0,33,33,33,,238.41927451599622,None,1500,240.42248039599508,None,None,240.42248039599508,None,1.58,34,241.95030979899457,None,1,1,241.95030979899457,None,You won $5.00!,0.1999999999999984,1,27,0.3999999999999999,50.0,0.28717649217544344,[],66.66666666666666,27,3,0.29003512699273415,,Adjusting RT...,034,Scanner,1,2019_Aug_27_0920,MID,3.1.5,24.003985757773233,
LgPun,2000,0,34,34,34,,243.9182235339831,None,2000,245.92295813400415,None,None,245.92295813400415,None,1.6,35,247.9350736310007,None,None,0,247.9350736310007,None,You lost $5.00!,-4.800000000000002,4,28,0.3999999999999999,48.57142857142857,0.28717649217544344,[0],66.66666666666666,27,3,,,,034,Scanner,1,2019_Aug_27_0920,MID,3.1.5,24.003985757773233,
LgReward,3500,0,35,35,35,,249.87686016998487,None,3500,251.88734700300847,None,None,251.88734700300847,None,1.6,36,255.4031406689901,None,None,0,255.4031406689901,None,You did not win $5.00!,-4.800000000000002,1,29,0.3999999999999999,47.22222222222222,0.28717649217544344,"[0, 0]",66.66666666666666,27,3,,,,034,Scanner,1,2019_Aug_27_0920,MID,3.1.5,24.003985757773233,
LgPun,3000,0,36,36,36,,257.3356581249973,None,3000,259.35318227199605,None,None,259.35318227199605,None,1.6,37,262.35387569500017,None,None,0,262.35387569500017,None,You lost $5.00!,-9.8,4,30,0.4499999999999999,45.94594594594595,0.28717649217544344,[],16.666666666666664,30,3,,,Adjusting RT...,034,Scanner,1,2019_Aug_27_0920,MID,3.1.5,24.003985757773233,
SmallReward,2000,0,37,37,37,,264.29336105499533,None,2000,266.304929342994,None,None,266.304929342994,None,1.55,38,268.3217612800072,None,1,1,268.3217612800072,None,You won $0.20!,-9.600000000000001,2,31,0.4499999999999999,47.368421052631575,0.2881981487217773,[1],16.666666666666664,30,3,0.30556631000945345,,,034,Scanner,1,2019_Aug_27_0920,MID,3.1.5,24.003985757773233,
SmallPun,1500,0,38,38,38,,270.2944860229909,None,1500,272.3044163729937,None,None,272.3044163729937,None,1.55,39,273.8116742899874,None,1,1,273.8116742899874,None,You did not lose $0.20!,-9.600000000000001,5,32,0.4499999999999999,48.717948717948715,0.2901180627369812,"[1, 1]",16.666666666666664,30,3,0.3246765150106512,,,034,Scanner,1,2019_Aug_27_0920,MID,3.1.5,24.003985757773233,
LgReward,4000,0,39,39,39,,275.7946788769914,None,4000,277.8005896419927,None,None,277.8005896419927,None,1.55,40,281.82387220699457,None,1,1,281.82387220699457,None,You won $5.00!,-4.600000000000001,1,33,0.4699999999999999,50.0,0.28943553815042833,[],50.0,33,3,0.2764675710059237,,Adjusting RT...,034,Scanner,1,2019_Aug_27_0920,MID,3.1.5,24.003985757773233,
Triangle,1500,0,40,40,40,,283.7947977120057,None,1500,285.80712146300357,None,None,285.80712146300357,None,1.53,41,287.31413887199597,None,1,1,287.31413887199597,None,You did not win or lose anything!,-4.600000000000001,3,33,0.4699999999999999,51.21951219512195,0.29152218681078274,[],50.0,33,3,0.33325516001787037,,,034,Scanner,1,2019_Aug_27_0920,MID,3.1.5,24.003985757773233,
LgReward,2000,0,41,41,41,,289.2537786900066,None,2000,291.2743159609963,None,None,291.2743159609963,None,1.53,42,293.29038255798514,None,1,1,293.29038255798514,None,You won $5.00!,0.3999999999999986,1,34,0.4699999999999999,52.38095238095239,0.2922695469103267,[1],50.0,33,3,0.3079641090007499,,,034,Scanner,1,2019_Aug_27_0920,MID,3.1.5,24.003985757773233,
SmallPun,3000,0,42,42,42,,295.25381967498106,None,3000,297.26247370499186,None,None,297.26247370499186,None,1.53,43,300.2750989829947,None,1,1,300.2750989829947,None,You did not lose $0.20!,0.3999999999999986,5,35,0.4699999999999999,53.48837209302325,0.2938757772613114,"[1, 1]",50.0,33,3,0.3292128449829761,,,034,Scanner,1,2019_Aug_27_0920,MID,3.1.5,24.003985757773233,
Triangle,1500,0,43,43,43,,302.25370193098206,None,1500,304.26134894799907,None,None,304.26134894799907,None,1.53,44,305.77590608998435,None,1,1,305.77590608998435,None,You did not win or lose anything!,0.3999999999999986,3,35,0.4699999999999999,54.54545454545454,0.2953988352091983,"[1, 1]",50.0,33,3,0.3304291680105962,,,034,Scanner,1,2019_Aug_27_0920,MID,3.1.5,24.003985757773233,
SmallPun,1500,0,44,44,44,,307.75418198498664,None,1500,309.75983870899654,None,None,309.75983870899654,None,1.53,45,311.2767913650023,None,1,1,311.2767913650023,None,You did not lose $0.20!,0.3999999999999986,5,36,0.41999999999999993,55.55555555555556,0.2960037639609072,[],100.0,36,3,0.3105220540019218,,Adjusting RT...,034,Scanner,1,2019_Aug_27_0920,MID,3.1.5,24.003985757773233,
LgPun,4000,0,45,45,45,,313.2119111100037,None,4000,315.22688916599145,None,1,315.22688916599145,None,1.58,46,319.2301506259828,None,1,1,319.2301506259828,None,You did not lose $5.00!,0.3999999999999986,4,37,0.41999999999999993,56.52173913043478,0.2968535004239619,[1],100.0,36,3,0.3180969120003283,0.35446115900413133,,034,Scanner,1,2019_Aug_27_0920,MID,3.1.5,24.003985757773233,
Triangle,2000,0,46,46,46,,321.2129693120078,None,2000,323.22879585498595,None,None,323.22879585498595,None,1.58,47,325.2302513989853,None,None,0,325.2302513989853,None,You did not win or lose anything!,0.3999999999999986,3,37,0.41999999999999993,55.319148936170215,0.2968535004239619,[1],100.0,36,3,,,,034,Scanner,1,2019_Aug_27_0920,MID,3.1.5,24.003985757773233,
LgReward,3000,0,47,47,47,,327.21539878100157,None,3000,329.21866066599614,None,None,329.21866066599614,None,1.58,48,332.24633696800447,None,None,0,332.24633696800447,None,You did not win $5.00!,0.3999999999999986,1,38,0.41999999999999993,54.166666666666664,0.2968535004239619,"[1, 0]",100.0,36,3,,,,034,Scanner,1,2019_Aug_27_0920,MID,3.1.5,24.003985757773233,
LgReward,1500,0,48,48,48,,334.215787255991,None,1500,336.23036642200896,None,None,336.23036642200896,None,1.58,49,337.74691160200746,None,None,0,337.74691160200746,None,You did not win $5.00!,0.3999999999999986,1,39,0.3999999999999999,53.06122448979592,0.2968535004239619,[],66.66666666666666,39,3,,,Adjusting RT...,034,Scanner,1,2019_Aug_27_0920,MID,3.1.5,24.003985757773233,
SmallReward,3500,0,49,49,49,,339.7156812619942,None,3500,341.7198918570066,None,None,341.7198918570066,None,1.6,50,345.24829087400576,None,None,0,345.24829087400576,None,You did not win $0.20!,0.3999999999999986,2,40,0.3999999999999999,52.0,0.2968535004239619,[0],66.66666666666666,39,3,,,,034,Scanner,1,2019_Aug_27_0920,MID,3.1.5,24.003985757773233,
,,,,,,,,,,,,,,,,,,,,,,,,,,,,,,,,,,,,,034,Scanner,1,2019_Aug_27_0920,MID,3.1.5,24.003985757773233,
