Condition,FixationDur,trials.thisRepN,trials.thisTrialN,trials.thisN,trials.thisIndex,TrialOrder,cueImage.started,cueImage.stopped,FixationDur,fixation.started,fixation.stopped,fixationResp.keys,fixationResp.started,fixationResp.stopped,feedbackDur,Trial counter,Target.started,Target.stopped,probeResp.keys,probeResp.corr,probeResp.started,probeResp.stopped,msg,TrackEarnings,TrialType,NonNeutralTrialsNum,probeDur,percentacc_total,meanrt,UserAcc,Acc,AdjTrial,AdjTrialInc,AdjRTmsg,fixationResp.rt,probeResp.rt,participant,prac_or_scan,run,date,expName,psychopyVersion,frameRate,
LgReward,1500,0,0,0,0,TimeVersion1.csv,26.554553614987526,None,1500,28.574363569001434,None,None,28.574363569001434,None,1.63,1,30.07810234898352,None,None,0,30.07810234898352,None,You did not win $5.00!,0,1,1,0.37,0.0,nan,[0],0,0,3,,,,034,Scanner,2,2019_Aug_27_0927,MID,3.1.5,23.992436719718384,
Triangle,3500,0,1,1,1,,32.054017657996155,None,3500,34.059556814987445,None,None,34.059556814987445,None,1.63,2,37.575990613986505,None,None,0,37.575990613986505,None,You did not win or lose anything!,0,3,1,0.37,0.0,nan,[0],0,0,3,,,,034,Scanner,2,2019_Aug_27_0927,MID,3.1.5,23.992436719718384,
LgPun,1500,0,2,2,2,,39.553167762001976,None,1500,41.56064722198062,None,None,41.56064722198062,None,1.63,3,43.077114585990785,None,None,0,43.077114585990785,None,You lost $5.00!,-5,4,2,0.37,0.0,nan,"[0, 0]",0,0,3,,,,034,Scanner,2,2019_Aug_27_0927,MID,3.1.5,23.992436719718384,
SmallReward,3500,0,3,3,3,,45.05320178598049,None,3500,47.062628730986034,None,None,47.062628730986034,None,1.63,4,50.582277916983,None,None,0,50.582277916983,None,You did not win $0.20!,-5,2,3,0.44,0.0,nan,[],0.0,3,3,Adjusting RT...,,,034,Scanner,2,2019_Aug_27_0927,MID,3.1.5,23.992436719718384,
LgReward,1500,0,4,4,4,,52.55508535300032,None,1500,54.55934616699233,None,1,54.55934616699233,None,1.56,5,56.081707948003896,None,None,0,56.081707948003896,None,You did not win $5.00!,-5,1,4,0.44,0.0,nan,[0],0.0,3,3,,0.008548058016458526,,034,Scanner,2,2019_Aug_27_0927,MID,3.1.5,23.992436719718384,
LgPun,2500,0,5,5,5,,58.012214399001095,None,2500,60.0285803169827,None,None,60.0285803169827,None,1.56,6,62.52899240399711,None,1,1,62.52899240399711,None,You did not lose $5.00!,-5,4,5,0.44,16.666666666666664,0.2749063160154037,"[0, 1]",0.0,3,3,,,0.2749063160154037,034,Scanner,2,2019_Aug_27_0927,MID,3.1.5,23.992436719718384,
LgReward,3500,0,6,6,6,,64.47306761899381,None,3500,66.47926746998564,None,None,66.47926746998564,None,1.56,7,70.00354214798426,None,1,1,70.00354214798426,None,You won $5.00!,0,1,6,0.48,28.57142857142857,0.2771220305148745,[],33.33333333333333,6,3,Adjusting RT...,,0.2793377450143453,034,Scanner,2,2019_Aug_27_0927,MID,3.1.5,23.992436719718384,
LgPun,2000,0,7,7,7,,71.92901733898907,None,2000,73.93308591598179,None,None,73.93308591598179,None,1.52,8,75.94834086499759,None,1,1,75.94834086499759,None,You did not lose $5.00!,0,4,7,0.48,37.5,0.284598113008542,[1],33.33333333333333,6,3,,,0.29955027799587697,034,Scanner,2,2019_Aug_27_0927,MID,3.1.5,23.992436719718384,
Triangle,1500,0,8,8,8,,77.88827482998022,None,1500,79.89859101100592,None,None,79.89859101100592,None,1.52,9,81.40550417400664,None,None,0,81.40550417400664,None,You did not win or lose anything!,0,3,7,0.48,33.33333333333333,0.284598113008542,[1],33.33333333333333,6,3,,,,034,Scanner,2,2019_Aug_27_0927,MID,3.1.5,23.992436719718384,
SmallPun,4000,0,9,9,9,,83.34681840898702,None,4000,85.36530906398548,None,None,85.36530906398548,None,1.52,10,89.36660187999951,None,1,1,89.36660187999951,None,You did not lose $0.20!,0,5,8,0.48,40.0,0.2725227637565695,"[1, 1]",33.33333333333333,6,3,,,0.23629671600065194,034,Scanner,2,2019_Aug_27_0927,MID,3.1.5,23.992436719718384,
Triangle,2000,0,10,10,10,,91.3053724099882,None,2000,93.31632400298258,None,None,93.31632400298258,None,1.52,11,95.32504267399781,None,None,0,95.32504267399781,None,You did not win or lose anything!,0,3,8,0.48,36.36363636363637,0.2725227637565695,"[1, 1]",33.33333333333333,6,3,,,,034,Scanner,2,2019_Aug_27_0927,MID,3.1.5,23.992436719718384,
Triangle,3000,0,11,11,11,,97.26389121299144,None,3000,99.28338865799014,None,None,99.28338865799014,None,1.52,12,102.28416284298874,None,None,0,102.28416284298874,None,You did not win or lose anything!,0,3,8,0.48,33.33333333333333,0.2725227637565695,"[1, 1]",33.33333333333333,6,3,,,,034,Scanner,2,2019_Aug_27_0927,MID,3.1.5,23.992436719718384,
SmallReward,3000,0,12,12,12,,104.22254254500149,None,3000,106.23450262498227,None,None,106.23450262498227,None,1.52,13,109.25148692697985,None,1,1,109.25148692697985,None,You won $0.20!,0.2,2,9,0.44999999999999996,38.46153846153847,0.28469774380209856,[],83.33333333333333,9,3,Adjusting RT...,,0.3333976639842149,034,Scanner,2,2019_Aug_27_0927,MID,3.1.5,23.992436719718384,
SmallPun,3000,0,13,13,13,,111.18297329699271,None,3000,113.18778782399022,None,None,113.18778782399022,None,1.55,14,116.20276196298073,None,None,0,116.20276196298073,None,You lost $0.20!,0.0,5,10,0.44999999999999996,35.714285714285715,0.28469774380209856,[0],83.33333333333333,9,3,,,,034,Scanner,2,2019_Aug_27_0927,MID,3.1.5,23.992436719718384,
LgReward,2000,0,14,14,14,,118.18133102200227,None,2000,120.1872765070002,None,None,120.1872765070002,None,1.55,15,122.20904559400515,None,None,0,122.20904559400515,None,You did not win $5.00!,0.0,1,11,0.44999999999999996,33.33333333333333,0.28469774380209856,"[0, 0]",83.33333333333333,9,3,,,,034,Scanner,2,2019_Aug_27_0927,MID,3.1.5,23.992436719718384,
SmallPun,2000,0,15,15,15,,124.18211551199784,None,2000,126.19151749799494,None,None,126.19151749799494,None,1.55,16,128.2042828349804,None,None,0,128.2042828349804,None,You lost $0.20!,-0.2,5,12,0.47,31.25,0.28469774380209856,[],50.0,12,3,Adjusting RT...,,,034,Scanner,2,2019_Aug_27_0927,MID,3.1.5,23.992436719718384,
LgPun,3000,0,16,16,16,,130.182307562005,None,3000,132.19012455097982,None,None,132.19012455097982,None,1.53,17,135.20539084999473,None,1,1,135.20539084999473,None,You did not lose $5.00!,-0.2,4,13,0.47,35.294117647058826,0.29016071366883506,[1],50.0,12,3,,,0.31747556300251745,034,Scanner,2,2019_Aug_27_0927,MID,3.1.5,23.992436719718384,
SmallPun,1500,0,17,17,17,,137.18264637398534,None,1500,139.19009162599104,None,None,139.19009162599104,None,1.53,18,140.7058493969962,None,1,1,140.7058493969962,None,You did not lose $0.20!,-0.2,5,14,0.47,38.88888888888889,0.29442764243244063,"[1, 1]",50.0,12,3,,,0.320029215014074,034,Scanner,2,2019_Aug_27_0927,MID,3.1.5,23.992436719718384,
LgReward,3000,0,18,18,18,,142.68287610798143,None,3000,144.69020327398903,None,None,144.69020327398903,None,1.53,19,147.71120298598544,None,1,1,147.71120298598544,None,You won $5.00!,4.8,1,15,0.49,42.10526315789473,0.298586681503366,[],50.0,15,3,Adjusting RT...,,0.3276999549998436,034,Scanner,2,2019_Aug_27_0927,MID,3.1.5,23.992436719718384,
LgPun,4000,0,19,19,19,,149.6429532530019,None,4000,151.6572796269902,None,None,151.6572796269902,None,1.51,20,155.65827149199322,None,1,1,155.65827149199322,None,You did not lose $5.00!,4.8,4,16,0.49,45.0,0.29914322122608106,[1],50.0,15,3,,,0.30359553900780156,034,Scanner,2,2019_Aug_27_0927,MID,3.1.5,23.992436719718384,
SmallReward,2500,0,20,20,20,,157.64190802699886,None,2500,159.65740708398516,None,None,159.65740708398516,None,1.51,21,162.174015978002,None,None,0,162.174015978002,None,You did not win $0.20!,4.8,2,17,0.49,42.857142857142854,0.29914322122608106,"[1, 0]",50.0,15,3,,,,034,Scanner,2,2019_Aug_27_0927,MID,3.1.5,23.992436719718384,
LgPun,3500,0,21,21,21,,164.14358708797954,None,3500,166.15937216900056,None,None,166.15937216900056,None,1.51,22,169.65964880300453,None,None,0,169.65964880300453,None,You lost $5.00!,-0.20000000000000018,4,18,0.47,40.909090909090914,0.29914322122608106,[],66.66666666666666,18,3,Adjusting RT...,,,034,Scanner,2,2019_Aug_27_0927,MID,3.1.5,23.992436719718384,
Triangle,1500,0,22,22,22,,171.64151825298904,None,1500,173.64765447098762,None,None,173.64765447098762,None,1.53,23,175.16408310100087,None,None,0,175.16408310100087,None,You did not win or lose anything!,-0.20000000000000018,3,18,0.47,39.130434782608695,0.29914322122608106,[],66.66666666666666,18,3,,,,034,Scanner,2,2019_Aug_27_0927,MID,3.1.5,23.992436719718384,
LgReward,2500,0,23,23,23,,177.14208555198275,None,2500,179.16109911497915,None,None,179.16109911497915,None,1.53,24,181.67971398399095,None,1,1,181.67971398399095,None,You won $5.00!,4.8,1,19,0.47,41.66666666666667,0.2976483349018963,[1],66.66666666666666,18,3,,,0.28419435798423365,034,Scanner,2,2019_Aug_27_0927,MID,3.1.5,23.992436719718384,
Triangle,1500,0,24,24,24,,183.60300584000652,None,1500,185.61173578898888,None,None,185.61173578898888,None,1.53,25,187.11942217400065,None,None,0,187.11942217400065,None,You did not win or lose anything!,4.8,3,19,0.47,40.0,0.2976483349018963,[1],66.66666666666666,18,3,,,,034,Scanner,2,2019_Aug_27_0927,MID,3.1.5,23.992436719718384,
Triangle,2000,0,25,25,25,,189.10152318200562,None,2000,191.11283358800574,None,None,191.11283358800574,None,1.53,26,193.11955566197867,None,None,0,193.11955566197867,None,You did not win or lose anything!,4.8,3,19,0.47,38.46153846153847,0.2976483349018963,[1],66.66666666666666,18,3,,,,034,Scanner,2,2019_Aug_27_0927,MID,3.1.5,23.992436719718384,
LgReward,4000,0,26,26,26,,195.06013095000526,None,4000,197.08019579798565,None,None,197.08019579798565,None,1.53,27,201.09666624598322,None,1,1,201.09666624598322,None,You won $5.00!,9.8,1,20,0.47,40.74074074074074,0.2992475865493444,"[1, 1]",66.66666666666666,18,3,,,0.3152401030238252,034,Scanner,2,2019_Aug_27_0927,MID,3.1.5,23.992436719718384,
Triangle,2500,0,27,27,27,,203.06034488600562,None,2500,205.08111479200306,None,None,205.08111479200306,None,1.53,28,207.5814631569956,None,None,0,207.5814631569956,None,You did not win or lose anything!,9.8,3,20,0.47,39.285714285714285,0.2992475865493444,"[1, 1]",66.66666666666666,18,3,,,,034,Scanner,2,2019_Aug_27_0927,MID,3.1.5,23.992436719718384,
SmallPun,2500,0,28,28,28,,209.56029644198134,None,2500,211.56699840599322,None,None,211.56699840599322,None,1.53,29,214.0826477239898,None,1,1,214.0826477239898,None,You did not lose $0.20!,9.8,5,21,0.44999999999999996,41.37931034482759,0.302488950585636,[],66.66666666666666,21,3,Adjusting RT...,,0.33814395498484373,034,Scanner,2,2019_Aug_27_0927,MID,3.1.5,23.992436719718384,
SmallReward,2000,0,29,29,29,,216.0190846589976,None,2000,218.03304466899135,None,None,218.03304466899135,None,1.55,30,220.0708484420029,None,None,0,220.0708484420029,None,You did not win $0.20!,9.8,2,22,0.44999999999999996,40.0,0.302488950585636,[0],66.66666666666666,21,3,,,,034,Scanner,2,2019_Aug_27_0927,MID,3.1.5,23.992436719718384,
LgReward,2000,0,30,30,30,,222.01938772498397,None,2000,224.02520464500412,None,None,224.02520464500412,None,1.55,31,226.05052588199032,None,1,1,226.05052588199032,None,You won $5.00!,14.8,1,23,0.44999999999999996,41.935483870967744,0.3033237750776327,"[0, 1]",66.66666666666666,21,3,,,0.3133416689815931,034,Scanner,2,2019_Aug_27_0927,MID,3.1.5,23.992436719718384,
SmallPun,2000,0,31,31,31,,228.02027547100442,None,2000,230.03412712100544,None,None,230.03412712100544,None,1.55,32,232.03861035499722,None,1,1,232.03861035499722,None,You did not lose $0.20!,14.8,5,24,0.41999999999999993,43.75,0.30524948200036306,[],83.33333333333333,24,3,Adjusting RT...,,0.33028367199585773,034,Scanner,2,2019_Aug_27_0927,MID,3.1.5,23.992436719718384,
SmallPun,1500,0,32,32,32,,234.02066349500092,None,1500,236.03553140198346,None,None,236.03553140198346,None,1.58,33,237.54207458300516,None,None,0,237.54207458300516,None,You lost $0.20!,14.600000000000001,5,25,0.41999999999999993,42.42424242424242,0.30524948200036306,[0],83.33333333333333,24,3,,,,034,Scanner,2,2019_Aug_27_0927,MID,3.1.5,23.992436719718384,
SmallReward,1500,0,33,33,33,,239.52018224698259,None,1500,241.53622787399217,None,None,241.53622787399217,None,1.58,34,243.05374397398555,None,None,0,243.05374397398555,None,You did not win $0.20!,14.600000000000001,2,26,0.41999999999999993,41.17647058823529,0.30524948200036306,"[0, 0]",83.33333333333333,24,3,,,,034,Scanner,2,2019_Aug_27_0927,MID,3.1.5,23.992436719718384,
SmallReward,1500,0,34,34,34,,245.02188640797976,None,1500,247.0366149150068,None,None,247.0366149150068,None,1.58,35,248.55308738199528,None,None,0,248.55308738199528,None,You did not win $0.20!,14.600000000000001,2,27,0.4599999999999999,40.0,0.30524948200036306,[],33.33333333333333,27,3,Adjusting RT...,,,034,Scanner,2,2019_Aug_27_0927,MID,3.1.5,23.992436719718384,
LgPun,1500,0,35,35,35,,250.52142563200323,None,1500,252.53738782499568,None,None,252.53738782499568,None,1.54,36,254.04044610098936,None,None,0,254.04044610098936,None,You lost $5.00!,9.600000000000001,4,28,0.4599999999999999,38.88888888888889,0.30524948200036306,[0],33.33333333333333,27,3,,,,034,Scanner,2,2019_Aug_27_0927,MID,3.1.5,23.992436719718384,
SmallReward,4000,0,36,36,36,,256.0205224759993,None,4000,258.03781575598987,None,None,258.03781575598987,None,1.54,37,262.05464756899164,None,1,1,262.05464756899164,None,You won $0.20!,9.8,2,29,0.4599999999999999,40.54054054054054,0.3061146047334963,"[0, 1]",33.33333333333333,27,3,,,0.3182263229973614,034,Scanner,2,2019_Aug_27_0927,MID,3.1.5,23.992436719718384,
SmallPun,1500,0,37,37,37,,264.0213954279898,None,1500,266.0393801909813,None,None,266.0393801909813,None,1.54,38,267.5388436189969,None,None,0,267.5388436189969,None,You lost $0.20!,9.600000000000001,5,30,0.5,39.473684210526315,0.3061146047334963,[],16.666666666666664,30,3,Adjusting RT...,,,034,Scanner,2,2019_Aug_27_0927,MID,3.1.5,23.992436719718384,
SmallReward,2000,0,38,38,38,,269.52149120898684,None,2000,271.5395241660008,None,None,271.5395241660008,None,1.5,39,273.5570130419801,None,1,1,273.5570130419801,None,You won $0.20!,9.8,2,31,0.5,41.02564102564102,0.3062839204994816,[1],16.666666666666664,30,3,,,0.3088236569892615,034,Scanner,2,2019_Aug_27_0927,MID,3.1.5,23.992436719718384,
SmallPun,3500,0,39,39,39,,275.52102391200606,None,3500,277.5408070929989,None,None,277.5408070929989,None,1.5,40,281.040752854984,None,1,1,281.040752854984,None,You did not lose $0.20!,9.8,5,32,0.5,42.5,0.30733284805832867,"[1, 1]",16.666666666666664,30,3,,,0.32411568899988197,034,Scanner,2,2019_Aug_27_0927,MID,3.1.5,23.992436719718384,
Triangle,1500,0,40,40,40,,283.0219489400042,None,1500,285.04159862198867,None,None,285.04159862198867,None,1.5,41,286.5418579519901,None,None,0,286.5418579519901,None,You did not win or lose anything!,9.8,3,32,0.5,41.46341463414634,0.30733284805832867,"[1, 1]",16.666666666666664,30,3,,,,034,Scanner,2,2019_Aug_27_0927,MID,3.1.5,23.992436719718384,
SmallPun,1500,0,41,41,41,,288.52245626898366,None,1500,290.5413451259956,None,None,290.5413451259956,None,1.5,42,292.0425696710008,None,1,1,292.0425696710008,None,You did not lose $0.20!,9.8,5,33,0.48,42.857142857142854,0.3087773236669212,[],66.66666666666666,33,3,Adjusting RT...,,0.3333334090129938,034,Scanner,2,2019_Aug_27_0927,MID,3.1.5,23.992436719718384,
LgPun,2000,0,42,42,42,,294.02270029700594,None,2000,296.0418600199919,None,None,296.0418600199919,None,1.52,43,298.0431496039964,None,1,1,298.0431496039964,None,You did not lose $5.00!,9.8,4,34,0.48,44.18604651162791,0.3099863077896819,[1],66.66666666666666,33,3,,,0.33174802199937403,034,Scanner,2,2019_Aug_27_0927,MID,3.1.5,23.992436719718384,
LgPun,1500,0,43,43,43,,299.9803557599953,None,1500,301.9876043839904,None,None,301.9876043839904,None,1.52,44,303.4976901059854,None,1,1,303.4976901059854,None,You did not lose $5.00!,9.8,4,35,0.48,45.45454545454545,0.31054070395039163,"[1, 1]",66.66666666666666,33,3,,,0.3210742310038768,034,Scanner,2,2019_Aug_27_0927,MID,3.1.5,23.992436719718384,
SmallReward,1500,0,44,44,44,,305.4421735119831,None,1500,307.44641812099144,None,None,307.44641812099144,None,1.52,45,308.97766749499715,None,1,1,308.97766749499715,None,You won $0.20!,10.0,2,36,0.43,46.666666666666664,0.31028760571470704,[],100.0,36,3,Adjusting RT...,,0.3052256410010159,034,Scanner,2,2019_Aug_27_0927,MID,3.1.5,23.992436719718384,
Triangle,4000,0,45,45,45,,310.89851233098307,None,4000,312.91183861499303,None,None,312.91183861499303,None,1.57,46,316.9145934819826,None,None,0,316.9145934819826,None,You did not win or lose anything!,10.0,3,36,0.43,45.65217391304348,0.31028760571470704,[],100.0,36,3,,,,034,Scanner,2,2019_Aug_27_0927,MID,3.1.5,23.992436719718384,
LgReward,1500,0,46,46,46,,318.8569245529943,None,1500,320.8661067689827,None,None,320.8661067689827,None,1.57,47,322.38506806700025,None,None,0,322.38506806700025,None,You did not win $5.00!,10.0,1,37,0.43,44.680851063829785,0.31028760571470704,[0],100.0,36,3,,,,034,Scanner,2,2019_Aug_27_0927,MID,3.1.5,23.992436719718384,
SmallReward,1500,0,47,47,47,,324.3159976530005,None,1500,326.3297215519997,None,None,326.3297215519997,None,1.57,48,327.8477266590053,None,None,0,327.8477266590053,None,You did not win $0.20!,10.0,2,38,0.43,43.75,0.31028760571470704,"[0, 0]",100.0,36,3,,,,034,Scanner,2,2019_Aug_27_0927,MID,3.1.5,23.992436719718384,
LgReward,1500,0,48,48,48,,329.78007219699793,None,1500,331.77943590297946,None,None,331.77943590297946,None,1.57,49,333.3037556360068,None,None,0,333.3037556360068,None,You did not win $5.00!,10.0,1,39,0.45,42.857142857142854,0.31028760571470704,[],50.0,39,3,Adjusting RT...,,,034,Scanner,2,2019_Aug_27_0927,MID,3.1.5,23.992436719718384,
LgPun,1500,0,49,49,49,,335.23378706598305,None,1500,337.24871626798995,None,None,337.24871626798995,None,1.55,50,338.75012937700376,None,1,1,338.75012937700376,None,You did not lose $5.00!,10.0,4,40,0.45,44.0,0.31208243463664653,[1],50.0,39,3,,,0.3497738419973757,034,Scanner,2,2019_Aug_27_0927,MID,3.1.5,23.992436719718384,
,,,,,,,,,,,,,,,,,,,,,,,,,,,,,,,,,,,,,034,Scanner,2,2019_Aug_27_0927,MID,3.1.5,23.992436719718384,
