Condition,FixationDur,trials.thisRepN,trials.thisTrialN,trials.thisN,trials.thisIndex,TrialOrder,cueImage.started,cueImage.stopped,FixationDur,fixation.started,fixation.stopped,fixationResp.keys,fixationResp.started,fixationResp.stopped,feedbackDur,Trial counter,Target.started,Target.stopped,probeResp.keys,probeResp.corr,probeResp.rt,probeResp.started,probeResp.stopped,msg,TrackEarnings,TrialType,NonNeutralTrialsNum,probeDur,percentacc_total,meanrt,UserAcc,Acc,AdjTrial,AdjTrialInc,feedback_resp.keys,OverallRT,feedback_resp.rt,AdjRTmsg,fixationResp.rt,participant,prac_or_scan,run,date,expName,psychopyVersion,frameRate,
LgPun,1500,0,0,0,0,TimeVersion13.csv,38.270400117966346,None,1500,40.30439128499711,None,None,40.30439128499711,None,1.66,1,41.84118482796475,None,1,1,0.2632483639754355,41.84118482796475,None,You did not lose $5.00!,0,4,1,0.34,100.0,0.2632483639754355,[1],0,0,3,None,0.2632483639754355,,,,035,Scanner,1,2019_Sep_01_0956,MID,3.1.5,59.93080245462348,
LgReward,2000,0,1,1,1,,43.90386033098912,None,2000,45.93795645900536,None,None,45.93795645900536,None,1.66,2,47.98782189597841,None,None,0,,47.98782189597841,None,You did not win $5.00!,0,1,2,0.34,50.0,0.2632483639754355,"[1, 0]",0,0,3,1,0.3414104879810475,0.0014104879810474813,,,035,Scanner,1,2019_Sep_01_0956,MID,3.1.5,59.93080245462348,
Triangle,4000,0,2,2,2,,50.02160462801112,None,4000,52.04221422696719,None,None,52.04221422696719,None,1.66,3,56.08739936497295,None,1,1,0.2970334520214237,56.08739936497295,None,You did not win or lose anything!,0,3,2,0.34,66.66666666666666,0.2801409079984296,"[1, 0]",0,0,3,None,0.2970334520214237,,,,035,Scanner,1,2019_Sep_01_0956,MID,3.1.5,59.93080245462348,
LgPun,1500,0,3,3,3,,58.1211079179775,None,1500,60.155857323959935,None,None,60.155857323959935,None,1.66,4,61.68862066901056,None,1,1,0.30181417503627017,61.68862066901056,None,You did not lose $5.00!,0,4,3,0.32,75.0,0.28736533034437645,[],66.66666666666666,3,3,None,0.30181417503627017,,Adjusting RT...,,035,Scanner,1,2019_Sep_01_0956,MID,3.1.5,59.93080245462348,
LgReward,1500,0,4,4,4,,63.75645982497372,None,1500,65.77865353296511,None,None,65.77865353296511,None,1.68,5,67.33908926299773,None,1,1,0.27952367399120703,67.33908926299773,None,You won $5.00!,5,1,4,0.32,80.0,0.2854049162560841,[1],66.66666666666666,3,3,None,0.27952367399120703,,,,035,Scanner,1,2019_Sep_01_0956,MID,3.1.5,59.93080245462348,
LgPun,2000,0,5,5,5,,69.37224262597738,None,2000,71.40602392499568,None,None,71.40602392499568,None,1.68,6,73.43866426701425,None,1,1,0.27792191895423457,73.43866426701425,None,You did not lose $5.00!,5,4,5,0.32,83.33333333333334,0.2839083167957142,"[1, 1]",66.66666666666666,3,3,None,0.27792191895423457,,,,035,Scanner,1,2019_Sep_01_0956,MID,3.1.5,59.93080245462348,
Triangle,3000,0,6,6,6,,75.47199515701504,None,3000,77.50655701098731,None,None,77.50655701098731,None,1.68,7,80.54015912400791,None,None,0,,80.54015912400791,None,You did not win or lose anything!,5,3,5,0.32,71.42857142857143,0.2839083167957142,"[1, 1]",66.66666666666666,3,3,1,0.3101005629799329,-0.009899437020067126,,,035,Scanner,1,2019_Sep_01_0956,MID,3.1.5,59.93080245462348,
SmallReward,2000,0,7,7,7,,82.5891994269914,None,2000,84.61364386900095,None,None,84.61364386900095,None,1.68,8,86.673232103989,None,1,1,0.255328722007107,86.673232103989,None,You won $0.20!,5.2,2,6,0.29000000000000004,75.0,0.279145050997613,[],83.33333333333333,6,3,None,0.255328722007107,,Adjusting RT...,,035,Scanner,1,2019_Sep_01_0956,MID,3.1.5,59.93080245462348,
Triangle,2000,0,8,8,8,,88.70673105301103,None,2000,90.74099141400075,None,1,90.74099141400075,None,1.71,9,92.77334936801344,None,None,0,,92.77334936801344,None,You did not win or lose anything!,5.2,3,6,0.29000000000000004,66.66666666666666,0.279145050997613,[],83.33333333333333,6,3,1,0.4413370440225117,0.1513370440225117,,0.31745218398282304,035,Scanner,1,2019_Sep_01_0956,MID,3.1.5,59.93080245462348,
SmallReward,2500,0,9,9,9,,94.81512425997062,None,2500,96.83261759398738,None,None,96.83261759398738,None,1.71,10,99.38193025597138,None,1,1,0.25463852199027315,99.38193025597138,None,You won $0.20!,5.4,2,7,0.29000000000000004,70.0,0.27564411828227875,[1],83.33333333333333,6,3,None,0.25463852199027315,,,,035,Scanner,1,2019_Sep_01_0956,MID,3.1.5,59.93080245462348,
Triangle,3500,0,10,10,10,,101.42481968400534,None,3500,103.45026544696884,None,None,103.45026544696884,None,1.71,11,106.98426930699497,None,None,0,,106.98426930699497,None,You did not win or lose anything!,5.4,3,7,0.29000000000000004,63.63636363636363,0.27564411828227875,[1],83.33333333333333,6,3,1,0.29118485599523414,0.001184855995234102,,,035,Scanner,1,2019_Sep_01_0956,MID,3.1.5,59.93080245462348,
SmallReward,4000,0,11,11,11,,109.0339072039933,None,4000,111.0671156719909,None,None,111.0671156719909,None,1.71,12,115.12583234498743,None,None,0,,115.12583234498743,None,You did not win $0.20!,5.4,2,8,0.29000000000000004,58.333333333333336,0.27564411828227875,"[1, 0]",83.33333333333333,6,3,1,0.30701088203117255,0.017010882031172514,,,035,Scanner,1,2019_Sep_01_0956,MID,3.1.5,59.93080245462348,
SmallPun,4000,0,12,12,12,,117.1586844639969,None,4000,119.18519662297331,None,None,119.18519662297331,None,1.71,13,123.22516011697007,None,None,0,,123.22516011697007,None,You lost $0.20!,5.2,5,9,0.27,53.84615384615385,0.27564411828227875,[],66.66666666666666,9,3,None,0.30701088203117255,,Adjusting RT...,,035,Scanner,1,2019_Sep_01_0956,MID,3.1.5,59.93080245462348,
SmallReward,1500,0,13,13,13,,125.29249450599309,None,1500,127.31988419097615,None,None,127.31988419097615,None,1.73,14,128.86854135099566,None,None,0,,128.86854135099566,None,You did not win $0.20!,5.2,2,10,0.27,50.0,0.27564411828227875,[0],66.66666666666666,9,3,1,0.301457265955396,0.031457265955396,,,035,Scanner,1,2019_Sep_01_0956,MID,3.1.5,59.93080245462348,
Triangle,1500,0,14,14,14,,130.90917737496784,None,1500,132.93704074801644,None,None,132.93704074801644,None,1.73,15,134.469636704016,None,None,0,,134.469636704016,None,You did not win or lose anything!,5.2,3,10,0.27,46.666666666666664,0.27564411828227875,[0],66.66666666666666,9,3,1,0.2921530729904771,0.022153072990477085,,,035,Scanner,1,2019_Sep_01_0956,MID,3.1.5,59.93080245462348,
LgPun,1500,0,15,15,15,,136.52658353897277,None,1500,138.5543775850092,None,None,138.5543775850092,None,1.73,16,140.0887369919801,None,None,0,,140.0887369919801,None,You lost $5.00!,0.20000000000000018,4,11,0.27,43.75,0.27564411828227875,"[0, 0]",66.66666666666666,9,3,None,0.2921530729904771,,,,035,Scanner,1,2019_Sep_01_0956,MID,3.1.5,59.93080245462348,
SmallPun,2000,0,16,16,16,,142.1267746699741,None,2000,144.15500639099628,None,None,144.15500639099628,None,1.73,17,146.18948335497407,None,None,0,,146.18948335497407,None,You lost $0.20!,1.6653345369377348e-16,5,12,0.32,41.17647058823529,0.27564411828227875,[],16.666666666666664,12,3,1,0.31797540198778734,-0.002024598012212664,Adjusting RT...,,035,Scanner,1,2019_Sep_01_0956,MID,3.1.5,59.93080245462348,
SmallReward,3000,0,17,17,17,,148.24416727299104,None,3000,150.27237874898128,None,None,150.27237874898128,None,1.68,18,153.32235818298068,None,1,1,0.2662091559614055,153.32235818298068,None,You won $0.20!,0.20000000000000018,2,13,0.32,44.44444444444444,0.2744647479921696,[1],16.666666666666664,12,3,None,0.2662091559614055,,,,035,Scanner,1,2019_Sep_01_0956,MID,3.1.5,59.93080245462348,
LgPun,3500,0,18,18,18,,155.36092144896975,None,3500,157.3908304600045,None,None,157.3908304600045,None,1.68,19,160.92456502700225,None,1,1,0.23786650900729,160.92456502700225,None,You did not lose $5.00!,0.20000000000000018,4,14,0.32,47.368421052631575,0.2703982769938496,"[1, 1]",16.666666666666664,12,3,None,0.23786650900729,,,,035,Scanner,1,2019_Sep_01_0956,MID,3.1.5,59.93080245462348,
Triangle,1500,0,19,19,19,,162.96095640200656,None,1500,164.99178351101,None,None,164.99178351101,None,1.68,20,166.52555884496542,None,None,0,,166.52555884496542,None,You did not win or lose anything!,0.20000000000000018,3,14,0.32,45.0,0.2703982769938496,"[1, 1]",16.666666666666664,12,3,None,0.23786650900729,,,,035,Scanner,1,2019_Sep_01_0956,MID,3.1.5,59.93080245462348,
LgPun,1500,0,20,20,20,,168.56158677500207,None,1500,170.59219675697386,None,None,170.59219675697386,None,1.68,21,172.1249486419838,None,1,1,0.2376297209993936,172.1249486419838,None,You did not lose $5.00!,0.20000000000000018,4,15,0.34,47.61904761904761,0.26712142139440403,[],50.0,15,3,None,0.2376297209993936,,Adjusting RT...,,035,Scanner,1,2019_Sep_01_0956,MID,3.1.5,59.93080245462348,
SmallPun,3500,0,21,21,21,,174.16179983201437,None,3500,176.19298312300816,None,None,176.19298312300816,None,1.66,22,179.72572763101198,None,1,1,0.2548188809887506,179.72572763101198,None,You did not lose $0.20!,0.20000000000000018,5,16,0.34,50.0,0.2660030086302537,[1],50.0,15,3,None,0.2548188809887506,,,,035,Scanner,1,2019_Sep_01_0956,MID,3.1.5,59.93080245462348,
SmallReward,1500,0,22,22,22,,181.79257258301368,None,1500,183.82717749197036,None,None,183.82717749197036,None,1.66,23,185.3765316309873,None,1,1,0.24989435099996626,185.3765316309873,None,You won $0.20!,0.4000000000000002,2,17,0.34,52.17391304347826,0.2646606204943964,"[1, 1]",50.0,15,3,None,0.24989435099996626,,,,035,Scanner,1,2019_Sep_01_0956,MID,3.1.5,59.93080245462348,
SmallPun,2500,0,23,23,23,,187.42940820398508,None,2500,189.4615791719989,None,None,189.4615791719989,None,1.66,24,191.99467057996662,None,1,1,0.26285350101534277,191.99467057996662,None,You did not lose $0.20!,0.4000000000000002,5,18,0.29000000000000004,54.166666666666664,0.2645216113037,[],100.0,18,3,None,0.26285350101534277,,Adjusting RT...,,035,Scanner,1,2019_Sep_01_0956,MID,3.1.5,59.93080245462348,
SmallPun,1500,0,24,24,24,,194.03083650500048,None,1500,196.06166259001475,None,None,196.06166259001475,None,1.71,25,197.59536293096608,None,None,0,,197.59536293096608,None,You lost $0.20!,0.20000000000000018,5,19,0.29000000000000004,52.0,0.2645216113037,[0],100.0,18,3,1,0.3506371509493329,0.06063715094933286,,,035,Scanner,1,2019_Sep_01_0956,MID,3.1.5,59.93080245462348,
LgPun,2500,0,25,25,25,,199.63066711998545,None,2500,201.6623077619588,None,None,201.6623077619588,None,1.71,26,204.1955684699933,None,1,1,0.23202149098506197,204.1955684699933,None,You did not lose $5.00!,0.20000000000000018,4,20,0.29000000000000004,53.84615384615385,0.262200174138083,"[0, 1]",100.0,18,3,None,0.23202149098506197,,,,035,Scanner,1,2019_Sep_01_0956,MID,3.1.5,59.93080245462348,
SmallReward,1500,0,26,26,26,,206.24582077399828,None,1500,208.28035860299133,None,None,208.28035860299133,None,1.71,27,209.83040047297254,None,None,0,,209.83040047297254,None,You did not win $0.20!,0.20000000000000018,2,21,0.27,51.85185185185185,0.262200174138083,[],66.66666666666666,21,3,None,0.23202149098506197,,Adjusting RT...,,035,Scanner,1,2019_Sep_01_0956,MID,3.1.5,59.93080245462348,
LgReward,1500,0,27,27,27,,211.8800684179878,None,1500,213.9143178529921,None,None,213.9143178529921,None,1.73,28,215.4632534859702,None,None,0,,215.4632534859702,None,You did not win $5.00!,0.20000000000000018,1,22,0.27,50.0,0.262200174138083,[0],66.66666666666666,21,3,1,0.2696679429896176,-0.00033205701038241386,,,035,Scanner,1,2019_Sep_01_0956,MID,3.1.5,59.93080245462348,
LgReward,2500,0,28,28,28,,217.5140264169895,None,2500,219.5481238719658,None,1,219.5481238719658,None,1.73,29,222.09795487998053,None,None,0,,222.09795487998053,None,You did not win $5.00!,0.20000000000000018,1,23,0.27,48.275862068965516,0.262200174138083,"[0, 0]",66.66666666666666,21,3,None,0.2696679429896176,,,2.3693262329907157,035,Scanner,1,2019_Sep_01_0956,MID,3.1.5,59.93080245462348,
SmallPun,2000,0,29,29,29,,224.13219289697008,None,2000,226.16602289897855,None,None,226.16602289897855,None,1.73,30,228.19831769401208,None,None,0,,228.19831769401208,None,You lost $0.20!,1.6653345369377348e-16,5,24,0.32,46.666666666666664,0.262200174138083,[],16.666666666666664,24,3,1,0.3299938079947606,0.009993807994760573,Adjusting RT...,,035,Scanner,1,2019_Sep_01_0956,MID,3.1.5,59.93080245462348,
SmallReward,1500,0,30,30,30,,230.248784076015,None,1500,232.2834870889783,None,None,232.2834870889783,None,1.68,31,233.83325069997227,None,1,1,0.23419213999295607,233.83325069997227,None,You won $0.20!,0.20000000000000018,2,25,0.32,48.38709677419355,0.2603329718617412,[1],16.666666666666664,24,3,None,0.23419213999295607,,,,035,Scanner,1,2019_Sep_01_0956,MID,3.1.5,59.93080245462348,
SmallPun,1500,0,31,31,31,,235.8662514059688,None,1500,237.8999633549829,None,None,237.8999633549829,None,1.68,32,239.43265282496577,None,1,1,0.24389822501689196,239.43265282496577,None,You did not lose $0.20!,0.20000000000000018,5,26,0.32,50.0,0.2593058001839381,"[1, 1]",16.666666666666664,24,3,None,0.24389822501689196,,,,035,Scanner,1,2019_Sep_01_0956,MID,3.1.5,59.93080245462348,
Triangle,2500,0,32,32,32,,241.46689369599335,None,2500,243.50007250497583,None,None,243.50007250497583,None,1.68,33,246.0340300659882,None,1,1,0.26053358596982434,246.0340300659882,None,You did not win or lose anything!,0.20000000000000018,3,26,0.32,51.515151515151516,0.25937802287722556,"[1, 1]",16.666666666666664,24,3,None,0.26053358596982434,,,,035,Scanner,1,2019_Sep_01_0956,MID,3.1.5,59.93080245462348,
LgReward,1500,0,33,33,33,,248.08354960399447,None,1500,250.11773534398526,None,None,250.11773534398526,None,1.68,34,251.6673764839652,None,1,1,0.23204835900105536,251.6673764839652,None,You won $5.00!,5.2,1,27,0.34,52.94117647058824,0.2578597082174383,[],50.0,27,3,None,0.23204835900105536,,Adjusting RT...,,035,Scanner,1,2019_Sep_01_0956,MID,3.1.5,59.93080245462348,
LgPun,2000,0,34,34,34,,253.7008370209951,None,2000,255.73513178696157,None,None,255.73513178696157,None,1.66,35,257.7682177120005,None,1,1,0.2461965280235745,257.7682177120005,None,You did not lose $5.00!,5.2,4,28,0.34,54.285714285714285,0.2572458566282876,[1],50.0,27,3,None,0.2461965280235745,,,,035,Scanner,1,2019_Sep_01_0956,MID,3.1.5,59.93080245462348,
LgReward,3500,0,35,35,35,,259.81787941098446,None,3500,261.8520388439647,None,None,261.8520388439647,None,1.66,36,265.4018245280022,None,1,1,0.2497185209649615,265.4018245280022,None,You won $5.00!,10.2,1,29,0.34,55.55555555555556,0.25686948984512126,"[1, 1]",50.0,27,3,None,0.2497185209649615,,,,035,Scanner,1,2019_Sep_01_0956,MID,3.1.5,59.93080245462348,
LgPun,3000,0,36,36,36,,267.43498120299773,None,3000,269.46859831601614,None,None,269.46859831601614,None,1.66,37,272.50225379201584,None,1,1,0.23418773902812973,272.50225379201584,None,You did not lose $5.00!,10.2,4,30,0.29000000000000004,56.75675675675676,0.25578940647288356,[],100.0,30,3,None,0.23418773902812973,,Adjusting RT...,,035,Scanner,1,2019_Sep_01_0956,MID,3.1.5,59.93080245462348,
SmallReward,2000,0,37,37,37,,274.5515907930094,None,2000,276.58613625197904,None,None,276.58613625197904,None,1.71,38,278.6358092710143,None,None,0,,278.6358092710143,None,You did not win $0.20!,10.2,2,31,0.29000000000000004,55.26315789473685,0.25578940647288356,[0],100.0,30,3,None,0.23418773902812973,,,,035,Scanner,1,2019_Sep_01_0956,MID,3.1.5,59.93080245462348,
SmallPun,1500,0,38,38,38,,280.6690916949883,None,1500,282.70353701600106,None,None,282.70353701600106,None,1.71,39,284.2357826009975,None,None,0,,284.2357826009975,None,You lost $0.20!,10.0,5,32,0.29000000000000004,53.84615384615385,0.25578940647288356,"[0, 0]",100.0,30,3,1,0.30003182301064957,0.010031823010649532,,,035,Scanner,1,2019_Sep_01_0956,MID,3.1.5,59.93080245462348,
LgReward,4000,0,39,39,39,,286.2864582510083,None,4000,288.3205033389968,None,None,288.3205033389968,None,1.71,40,292.3704835649696,None,None,0,,292.3704835649696,None,You did not win $5.00!,10.0,1,33,0.31000000000000005,52.5,0.25578940647288356,[],50.0,33,3,None,0.30003182301064957,,Adjusting RT...,,035,Scanner,1,2019_Sep_01_0956,MID,3.1.5,59.93080245462348,
Triangle,1500,0,40,40,40,,294.40375762199983,None,1500,296.437998097972,None,None,296.437998097972,None,1.69,41,297.97079973696964,None,None,0,,297.97079973696964,None,You did not win or lose anything!,10.0,3,33,0.31000000000000005,51.21951219512195,0.25578940647288356,[],50.0,33,3,1,0.3212699170131237,0.011269917013123631,,,035,Scanner,1,2019_Sep_01_0956,MID,3.1.5,59.93080245462348,
LgReward,2000,0,41,41,41,,300.03723377600545,None,2000,302.07147518801503,None,None,302.07147518801503,None,1.69,42,304.1209909809986,None,1,1,0.2405561930499971,304.1209909809986,None,You won $5.00!,15.0,1,34,0.31000000000000005,52.38095238095239,0.2550969876809342,[1],50.0,33,3,None,0.2405561930499971,,,,035,Scanner,1,2019_Sep_01_0956,MID,3.1.5,59.93080245462348,
SmallPun,3000,0,42,42,42,,306.170410236984,None,3000,308.2049075840041,None,None,308.2049075840041,None,1.69,43,311.238411000988,None,1,1,0.27112884301459417,311.238411000988,None,You did not lose $0.20!,15.0,5,35,0.31000000000000005,53.48837209302325,0.2557940248693542,"[1, 1]",50.0,33,3,None,0.27112884301459417,,,,035,Scanner,1,2019_Sep_01_0956,MID,3.1.5,59.93080245462348,
Triangle,1500,0,43,43,43,,313.28803483600495,None,1500,315.3223392929649,None,None,315.3223392929649,None,1.69,44,316.8546999680111,None,None,0,,316.8546999680111,None,You did not win or lose anything!,15.0,3,35,0.31000000000000005,52.27272727272727,0.2557940248693542,"[1, 1]",50.0,33,3,1,0.3110213240166195,0.0010213240166194737,,,035,Scanner,1,2019_Sep_01_0956,MID,3.1.5,59.93080245462348,
SmallPun,1500,0,44,44,44,,318.9047207229887,None,1500,320.9394215779612,None,None,320.9394215779612,None,1.69,45,322.47278724599164,None,1,1,0.24075675097992644,322.47278724599164,None,You did not lose $0.20!,15.0,5,36,0.33000000000000007,53.333333333333336,0.25516747179062804,[],50.0,36,3,None,0.24075675097992644,,Adjusting RT...,,035,Scanner,1,2019_Sep_01_0956,MID,3.1.5,59.93080245462348,
LgPun,4000,0,45,45,45,,324.52224256598856,None,4000,326.5448269179906,None,None,326.5448269179906,None,1.67,46,330.5897438339889,None,1,1,0.2977026469889097,330.5897438339889,None,You did not lose $5.00!,15.0,4,37,0.33000000000000007,54.347826086956516,0.2568688787985593,[1],50.0,36,3,None,0.2977026469889097,,,,035,Scanner,1,2019_Sep_01_0956,MID,3.1.5,59.93080245462348,
Triangle,2000,0,46,46,46,,332.62300695001613,None,2000,334.64710668998305,None,None,334.64710668998305,None,1.67,47,336.6897624139674,None,1,1,0.2958128320169635,336.6897624139674,None,You did not win or lose anything!,15.0,3,37,0.33000000000000007,55.319148936170215,0.2583667231531133,[1],50.0,36,3,None,0.2958128320169635,,,,035,Scanner,1,2019_Sep_01_0956,MID,3.1.5,59.93080245462348,
LgReward,3000,0,47,47,47,,338.7399019129807,None,3000,340.76435827696696,None,None,340.76435827696696,None,1.67,48,343.8238307730062,None,1,1,0.28762916900450364,343.8238307730062,None,You won $5.00!,20.0,1,38,0.33000000000000007,56.25,0.25945051744390557,"[1, 1]",50.0,36,3,None,0.28762916900450364,,,,035,Scanner,1,2019_Sep_01_0956,MID,3.1.5,59.93080245462348,
LgReward,1500,0,48,48,48,,345.8732269539614,None,1500,347.89762755599804,None,None,347.89762755599804,None,1.67,49,349.44754272996215,None,1,1,0.2309131110087037,349.44754272996215,None,You won $5.00!,25.0,1,39,0.2800000000000001,57.14285714285714,0.25843132435693406,[],100.0,39,3,None,0.2309131110087037,,Adjusting RT...,,035,Scanner,1,2019_Sep_01_0956,MID,3.1.5,59.93080245462348,
SmallReward,3500,0,49,49,49,,351.50771144399187,None,3500,353.5317499290104,None,None,353.5317499290104,None,1.72,50,357.08288289397024,None,1,1,0.2565322740119882,357.08288289397024,None,You won $0.20!,25.2,2,40,0.2800000000000001,57.99999999999999,0.25836583986228073,[1],100.0,39,3,None,0.2565322740119882,,,,035,Scanner,1,2019_Sep_01_0956,MID,3.1.5,59.93080245462348,
,,,,,,,,,,,,,,,,,,,,,,,,,,,,,,,,,,,,,,,,035,Scanner,1,2019_Sep_01_0956,MID,3.1.5,59.93080245462348,
