Condition,FixationDur,trials.thisRepN,trials.thisTrialN,trials.thisN,trials.thisIndex,TrialOrder,cueImage.started,cueImage.stopped,FixationDur,fixation.started,fixation.stopped,fixationResp.keys,fixationResp.rt,fixationResp.started,fixationResp.stopped,feedbackDur,Trial counter,Target.started,Target.stopped,probeResp.keys,probeResp.corr,probeResp.started,probeResp.stopped,msg,TrackEarnings,TrialType,NonNeutralTrialsNum,probeDur,percentacc_total,meanrt,UserAcc,Acc,AdjTrial,AdjTrialInc,AdjRTmsg,probeResp.rt,participant,prac_or_scan,run,date,expName,psychopyVersion,frameRate,
Triangle,2000,0,0,0,0,TimeVersion9.csv,25.848460366018116,None,2000,27.85615029602195,None,1,0.3980344539741054,27.85615029602195,None,1.6,1,29.876254891016288,None,None,0,29.876254891016288,None,You did not win or lose anything!,0,3,0,0.39999999999999997,0.0,nan,[],0,0,3,,,036,Scanner,1,2019_Aug_25_0950,MID,3.1.5,23.93116243320445,
Triangle,1500,0,1,1,1,,31.807052435993683,None,1500,33.822431225009495,None,None,,33.822431225009495,None,1.6,2,35.322230474004755,None,None,0,35.322230474004755,None,You did not win or lose anything!,0,3,0,0.39999999999999997,0.0,nan,[],0,0,3,,,036,Scanner,1,2019_Aug_25_0950,MID,3.1.5,23.93116243320445,
LgPun,2500,0,2,2,2,,37.26550762000261,None,2500,39.27573889301857,None,None,,39.27573889301857,None,1.6,3,41.791503408021526,None,None,0,41.791503408021526,None,You lost $5.00!,-5,4,1,0.39999999999999997,0.0,nan,[0],0,0,3,,,036,Scanner,1,2019_Aug_25_0950,MID,3.1.5,23.93116243320445,
Triangle,1500,0,3,3,3,,43.723886020015925,None,1500,45.74200339100207,None,None,,45.74200339100207,None,1.6,4,47.24399562101462,None,None,0,47.24399562101462,None,You did not win or lose anything!,-5,3,1,0.39999999999999997,0.0,nan,[0],0,0,3,,,036,Scanner,1,2019_Aug_25_0950,MID,3.1.5,23.93116243320445,
LgReward,1500,0,4,4,4,,49.182549012009986,None,1500,51.192552282009274,None,None,,51.192552282009274,None,1.6,5,52.71077501200489,None,None,0,52.71077501200489,None,You did not win $5.00!,-5,1,2,0.39999999999999997,0.0,nan,"[0, 0]",0,0,3,,,036,Scanner,1,2019_Aug_25_0950,MID,3.1.5,23.93116243320445,
SmallPun,1500,0,5,5,5,,54.64139736801735,None,1500,56.66013835000922,None,None,,56.66013835000922,None,1.6,6,58.16016636401764,None,None,0,58.16016636401764,None,You lost $0.20!,-5.2,5,3,0.47,0.0,nan,[],0.0,3,3,Adjusting RT...,,036,Scanner,1,2019_Aug_25_0950,MID,3.1.5,23.93116243320445,
LgPun,4000,0,6,6,6,,60.09986670099897,None,4000,62.11118919000728,None,1,1.5750093969982117,62.11118919000728,None,1.53,7,66.11834067900782,None,None,0,66.11834067900782,None,You lost $5.00!,-10.2,4,4,0.47,0.0,nan,[0],0.0,3,3,,,036,Scanner,1,2019_Aug_25_0950,MID,3.1.5,23.93116243320445,
Triangle,3500,0,7,7,7,,68.09940985799767,None,3500,70.11185818901868,None,1,2.634451441001147,70.11185818901868,None,1.53,8,73.6198124079965,None,None,0,73.6198124079965,None,You did not win or lose anything!,-10.2,3,4,0.47,0.0,nan,[0],0.0,3,3,,,036,Scanner,1,2019_Aug_25_0950,MID,3.1.5,23.93116243320445,
SmallReward,2500,0,8,8,8,,75.59952032801812,None,2500,77.61261518599349,None,None,,77.61261518599349,None,1.53,9,80.13596298301127,None,1,1,80.13596298301127,None,You won $0.20!,-10.0,2,5,0.47,11.11111111111111,0.3183377489913255,"[0, 1]",0.0,3,3,,0.3183377489913255,036,Scanner,1,2019_Aug_25_0950,MID,3.1.5,23.93116243320445,
LgPun,2000,0,9,9,9,,82.06114586102194,None,2000,84.06616085700807,None,None,,84.06616085700807,None,1.53,10,86.08042971999384,None,None,0,86.08042971999384,None,You lost $5.00!,-15.0,4,6,0.5,10.0,0.3183377489913255,[],16.666666666666664,6,3,Adjusting RT...,,036,Scanner,1,2019_Aug_25_0950,MID,3.1.5,23.93116243320445,
SmallPun,1500,0,10,10,10,,88.05977818599786,None,1500,90.06667556500179,None,None,,90.06667556500179,None,1.5,11,91.58171512599802,None,None,0,91.58171512599802,None,You lost $0.20!,-15.2,5,7,0.5,9.090909090909092,0.3183377489913255,[0],16.666666666666664,6,3,,,036,Scanner,1,2019_Aug_25_0950,MID,3.1.5,23.93116243320445,
SmallReward,3000,0,11,11,11,,93.55962315900251,None,3000,95.56758945502224,None,None,,95.56758945502224,None,1.5,12,98.59730338200461,None,1,1,98.59730338200461,None,You won $0.20!,-15.0,2,8,0.5,16.666666666666664,0.2971645559882745,"[0, 1]",16.666666666666664,6,3,,0.27599136298522353,036,Scanner,1,2019_Aug_25_0950,MID,3.1.5,23.93116243320445,
LgPun,1500,0,12,12,12,,100.55999739302206,None,1500,102.56868679702166,None,None,,102.56868679702166,None,1.5,13,104.08308088500053,None,1,1,104.08308088500053,None,You did not lose $5.00!,-15.0,4,9,0.5,23.076923076923077,0.315181198665717,[],49.99999999999999,9,3,Adjusting RT...,0.35121448402060196,036,Scanner,1,2019_Aug_25_0950,MID,3.1.5,23.93116243320445,
SmallReward,1500,0,13,13,13,,106.05928035001853,None,1500,108.06965101300739,None,None,,108.06965101300739,None,1.5,14,109.59061356901657,None,None,0,109.59061356901657,None,You did not win $0.20!,-15.0,2,10,0.5,21.428571428571427,0.315181198665717,[0],49.99999999999999,9,3,,,036,Scanner,1,2019_Aug_25_0950,MID,3.1.5,23.93116243320445,
SmallReward,2000,0,14,14,14,,111.56343575799838,None,2000,113.56754371299758,None,None,,113.56754371299758,None,1.5,15,115.5920045709936,None,1,1,115.5920045709936,None,You won $0.20!,-14.8,2,11,0.5,26.666666666666668,0.31169353199220495,"[0, 1]",49.99999999999999,9,3,,0.3012305319716688,036,Scanner,1,2019_Aug_25_0950,MID,3.1.5,23.93116243320445,
LgPun,2000,0,15,15,15,,117.5626574390044,None,2000,119.57025723002153,None,None,,119.57025723002153,None,1.5,16,121.5853735890123,None,1,1,121.5853735890123,None,You did not lose $5.00!,-14.8,4,12,0.48,31.25,0.31411327319219706,[],66.66666666666666,12,3,Adjusting RT...,0.3237922379921656,036,Scanner,1,2019_Aug_25_0950,MID,3.1.5,23.93116243320445,
Triangle,2500,0,16,16,16,,123.56131373901735,None,2500,125.56897211601608,None,1,0.6883342329820152,125.56897211601608,None,1.52,17,128.08648438099772,None,None,0,128.08648438099772,None,You did not win or lose anything!,-14.8,3,12,0.48,29.411764705882355,0.31411327319219706,[],66.66666666666666,12,3,,,036,Scanner,1,2019_Aug_25_0950,MID,3.1.5,23.93116243320445,
LgPun,1500,0,17,17,17,,130.0189910120098,None,1500,132.0364112929965,None,None,,132.0364112929965,None,1.52,18,133.5406776549935,None,1,1,133.5406776549935,None,You did not lose $5.00!,-14.8,4,13,0.48,33.33333333333333,0.30869261632324196,[1],66.66666666666666,12,3,,0.28158933197846636,036,Scanner,1,2019_Aug_25_0950,MID,3.1.5,23.93116243320445,
LgReward,3500,0,18,18,18,,135.477402591001,None,3500,137.4876999100088,None,1,0.4716212159837596,137.4876999100088,None,1.52,19,141.0082301509974,None,1,1,141.0082301509974,None,You won $5.00!,-9.8,1,14,0.48,36.84210526315789,0.3034556739897068,"[1, 1]",66.66666666666666,12,3,,0.27203401998849586,036,Scanner,1,2019_Aug_25_0950,MID,3.1.5,23.93116243320445,
LgReward,1500,0,19,19,19,,142.93607716599945,None,1500,144.95449547900353,None,None,,144.95449547900353,None,1.52,20,146.45480261099874,None,None,0,146.45480261099874,None,You did not win $5.00!,-9.8,1,15,0.45999999999999996,35.0,0.3034556739897068,[],66.66666666666666,15,3,Adjusting RT...,,036,Scanner,1,2019_Aug_25_0950,MID,3.1.5,23.93116243320445,
LgPun,3000,0,20,20,20,,148.3958032100054,None,3000,150.403754458006,None,1,0.3925703180138953,150.403754458006,None,1.54,21,153.4131977299985,None,1,1,153.4131977299985,None,You did not lose $5.00!,-9.8,4,16,0.45999999999999996,38.095238095238095,0.3062853099909262,[1],66.66666666666666,15,3,,0.3260927619994618,036,Scanner,1,2019_Aug_25_0950,MID,3.1.5,23.93116243320445,
SmallPun,2000,0,21,21,21,,155.39577525900677,None,2000,157.4068737149937,None,None,,157.4068737149937,None,1.54,22,159.41412731300807,None,None,0,159.41412731300807,None,You lost $0.20!,-10.0,5,17,0.45999999999999996,36.36363636363637,0.3062853099909262,"[1, 0]",66.66666666666666,15,3,,,036,Scanner,1,2019_Aug_25_0950,MID,3.1.5,23.93116243320445,
SmallReward,3500,0,22,22,22,,161.39604218801833,None,3500,163.4073047620186,None,None,,163.4073047620186,None,1.54,23,166.92492352300906,None,1,1,166.92492352300906,None,You won $0.20!,-9.8,2,18,0.43999999999999995,39.130434782608695,0.30362889710361035,[],66.66666666666666,18,3,Adjusting RT...,0.28237759400508367,036,Scanner,1,2019_Aug_25_0950,MID,3.1.5,23.93116243320445,
LgReward,2500,0,23,23,23,,168.89653486199677,None,2500,170.90793551900424,None,None,,170.90793551900424,None,1.56,24,173.44455519301118,None,None,0,173.44455519301118,None,You did not win $5.00!,-9.8,1,19,0.43999999999999995,37.5,0.30362889710361035,[0],66.66666666666666,18,3,,,036,Scanner,1,2019_Aug_25_0950,MID,3.1.5,23.93116243320445,
SmallReward,4000,0,24,24,24,,175.35759402101394,None,4000,177.36157096299576,None,None,,177.36157096299576,None,1.56,25,181.38435224400018,None,1,1,181.38435224400018,None,You won $0.20!,-9.600000000000001,2,20,0.43999999999999995,40.0,0.30176112409390043,"[0, 1]",66.66666666666666,18,3,,0.28495116700651124,036,Scanner,1,2019_Aug_25_0950,MID,3.1.5,23.93116243320445,
SmallPun,4000,0,25,25,25,,183.3136051420006,None,4000,185.3266014860128,None,None,,185.3266014860128,None,1.56,26,189.33149012099602,None,None,0,189.33149012099602,None,You lost $0.20!,-9.8,5,21,0.45999999999999996,38.46153846153847,0.30176112409390043,[],49.99999999999999,21,3,Adjusting RT...,,036,Scanner,1,2019_Aug_25_0950,MID,3.1.5,23.93116243320445,
LgReward,2000,0,26,26,26,,191.27183288999368,None,2000,193.28122946500662,None,None,,193.28122946500662,None,1.54,27,195.30175959900953,None,None,0,195.30175959900953,None,You did not win $5.00!,-9.8,1,22,0.45999999999999996,37.03703703703704,0.30176112409390043,[0],49.99999999999999,21,3,,,036,Scanner,1,2019_Aug_25_0950,MID,3.1.5,23.93116243320445,
LgReward,3000,0,27,27,27,,197.27298193401657,None,3000,199.28241439399426,None,None,,199.28241439399426,None,1.54,28,202.30215311600477,None,1,1,202.30215311600477,None,You won $5.00!,-4.800000000000001,1,23,0.45999999999999996,39.285714285714285,0.30079643935790623,"[0, 1]",49.99999999999999,21,3,,0.2911495919979643,036,Scanner,1,2019_Aug_25_0950,MID,3.1.5,23.93116243320445,
Triangle,4000,0,28,28,28,,204.27342794000288,None,4000,206.29756411499693,None,None,,206.29756411499693,None,1.54,29,210.29619979701238,None,1,1,210.29619979701238,None,You did not win or lose anything!,-4.800000000000001,3,23,0.45999999999999996,41.37931034482759,0.29814755841168034,"[0, 1]",49.99999999999999,21,3,,0.26900986800319515,036,Scanner,1,2019_Aug_25_0950,MID,3.1.5,23.93116243320445,
LgPun,1500,0,29,29,29,,212.27353624999523,None,1500,214.2809799789975,None,None,,214.2809799789975,None,1.54,30,215.79762189800385,None,None,0,215.79762189800385,None,You lost $5.00!,-9.8,4,24,0.49999999999999994,40.0,0.29814755841168034,[],33.33333333333333,24,3,Adjusting RT...,,036,Scanner,1,2019_Aug_25_0950,MID,3.1.5,23.93116243320445,
SmallReward,1500,0,30,30,30,,217.77861243402003,None,1500,219.78172428300604,None,None,,219.78172428300604,None,1.5,31,221.3140429549967,None,None,0,221.3140429549967,None,You did not win $0.20!,-9.8,2,25,0.49999999999999994,38.70967741935484,0.29814755841168034,[0],33.33333333333333,24,3,,,036,Scanner,1,2019_Aug_25_0950,MID,3.1.5,23.93116243320445,
LgReward,1500,0,31,31,31,,223.27423921701848,None,1500,225.28036615101155,None,None,,225.28036615101155,None,1.5,32,226.80341861699708,None,None,0,226.80341861699708,None,You did not win $5.00!,-9.8,1,26,0.49999999999999994,37.5,0.29814755841168034,"[0, 0]",33.33333333333333,24,3,,,036,Scanner,1,2019_Aug_25_0950,MID,3.1.5,23.93116243320445,
LgReward,4000,0,32,32,32,,228.77591295400634,None,4000,230.78430821801885,None,None,,230.78430821801885,None,1.5,33,234.80608960799873,None,1,1,234.80608960799873,None,You won $5.00!,-4.800000000000001,1,27,0.5,39.39393939393939,0.2972294272241505,[],33.33333333333333,27,3,Adjusting RT...,0.2862118529737927,036,Scanner,1,2019_Aug_25_0950,MID,3.1.5,23.93116243320445,
SmallPun,3500,0,33,33,33,,236.77472992500407,None,3500,238.78195940400474,None,None,,238.78195940400474,None,1.5,34,242.2910873410001,None,1,1,242.2910873410001,None,You did not lose $0.20!,-4.800000000000001,5,28,0.5,41.17647058823529,0.29886371335097855,[1],33.33333333333333,27,3,,0.32010943299974315,036,Scanner,1,2019_Aug_25_0950,MID,3.1.5,23.93116243320445,
Triangle,1500,0,34,34,34,,244.27541449302225,None,1500,246.28475923099904,None,1,0.7315494290087372,246.28475923099904,None,1.5,35,247.80053299700376,None,None,0,247.80053299700376,None,You did not win or lose anything!,-4.800000000000001,3,28,0.5,40.0,0.29886371335097855,[1],33.33333333333333,27,3,,,036,Scanner,1,2019_Aug_25_0950,MID,3.1.5,23.93116243320445,
Triangle,2000,0,35,35,35,,249.77494830201613,None,2000,251.78446455701487,None,None,,251.78446455701487,None,1.5,36,253.8011015180091,None,None,0,253.8011015180091,None,You did not win or lose anything!,-4.800000000000001,3,28,0.5,38.88888888888889,0.29886371335097855,[1],33.33333333333333,27,3,,,036,Scanner,1,2019_Aug_25_0950,MID,3.1.5,23.93116243320445,
SmallPun,2000,0,36,36,36,,255.77543391499785,None,2000,257.78553879400715,None,None,,257.78553879400715,None,1.5,37,259.7941363819991,None,None,0,259.7941363819991,None,You lost $0.20!,-5.000000000000001,5,29,0.5,37.83783783783784,0.29886371335097855,"[1, 0]",33.33333333333333,27,3,,,036,Scanner,1,2019_Aug_25_0950,MID,3.1.5,23.93116243320445,
LgPun,1500,0,37,37,37,,261.7756460290111,None,1500,263.78726603099494,None,None,,263.78726603099494,None,1.5,38,265.2933329619991,None,None,0,265.2933329619991,None,You lost $5.00!,-10.0,4,30,0.5,36.84210526315789,0.29886371335097855,[],33.33333333333333,30,3,Adjusting RT...,,036,Scanner,1,2019_Aug_25_0950,MID,3.1.5,23.93116243320445,
LgPun,3500,0,38,38,38,,267.2759449510195,None,3500,269.28758841301897,None,None,,269.28758841301897,None,1.5,39,272.7895797030069,None,None,0,272.7895797030069,None,You lost $5.00!,-15.0,4,31,0.5,35.8974358974359,0.29886371335097855,[0],33.33333333333333,30,3,,,036,Scanner,1,2019_Aug_25_0950,MID,3.1.5,23.93116243320445,
SmallPun,3000,0,39,39,39,,274.77623729000334,None,3000,276.78765149999526,None,None,,276.78765149999526,None,1.5,40,279.8040316370025,None,1,1,279.8040316370025,None,You did not lose $0.20!,-15.0,5,32,0.5,37.5,0.30068939966149627,"[0, 1]",33.33333333333333,30,3,,0.32624900800874457,036,Scanner,1,2019_Aug_25_0950,MID,3.1.5,23.93116243320445,
LgReward,2000,0,40,40,40,,281.776339286007,None,2000,283.7816655570059,None,None,,283.7816655570059,None,1.5,41,285.80830503001926,None,None,0,285.80830503001926,None,You did not win $5.00!,-15.0,1,33,0.5,36.58536585365854,0.30068939966149627,[],33.33333333333333,33,3,Adjusting RT...,,036,Scanner,1,2019_Aug_25_0950,MID,3.1.5,23.93116243320445,
SmallPun,1500,0,41,41,41,,287.7783452110016,None,1500,289.78972196401446,None,None,,289.78972196401446,None,1.5,42,291.2960574320168,None,None,0,291.2960574320168,None,You lost $0.20!,-15.2,5,34,0.5,35.714285714285715,0.30068939966149627,[0],33.33333333333333,33,3,,,036,Scanner,1,2019_Aug_25_0950,MID,3.1.5,23.93116243320445,
SmallReward,1500,0,42,42,42,,293.27635188100976,None,1500,295.2907167960075,None,None,,295.2907167960075,None,1.5,43,296.81007894300274,None,1,1,296.81007894300274,None,You won $0.20!,-15.0,2,35,0.5,37.2093023255814,0.3014714744331286,"[0, 1]",33.33333333333333,33,3,,0.31320259600761347,036,Scanner,1,2019_Aug_25_0950,MID,3.1.5,23.93116243320445,
SmallReward,1500,0,43,43,43,,298.77900500499527,None,1500,300.79075573800947,None,None,,300.79075573800947,None,1.5,44,302.30881470200256,None,1,1,302.30881470200256,None,You won $0.20!,-14.8,2,36,0.5,38.63636363636363,0.30335538817384716,[],49.99999999999999,36,3,Adjusting RT...,0.33349800802534446,036,Scanner,1,2019_Aug_25_0950,MID,3.1.5,23.93116243320445,
LgReward,1500,0,44,44,44,,304.2790715790179,None,1500,306.2922366319981,None,None,,306.2922366319981,None,1.5,45,307.81161078301375,None,1,1,307.81161078301375,None,You won $5.00!,-9.8,1,37,0.5,40.0,0.3066520099431121,[1],49.99999999999999,36,3,,0.36269458002061583,036,Scanner,1,2019_Aug_25_0950,MID,3.1.5,23.93116243320445,
Triangle,1500,0,45,45,45,,309.77944569001556,None,1500,311.7933958359936,None,1,0.6229114200104959,311.7933958359936,None,1.5,46,313.2979811319965,None,None,0,313.2979811319965,None,You did not win or lose anything!,-9.8,3,37,0.5,39.130434782608695,0.3066520099431121,[1],49.99999999999999,36,3,,,036,Scanner,1,2019_Aug_25_0950,MID,3.1.5,23.93116243320445,
SmallPun,1500,0,46,46,46,,315.2781205550127,None,1500,317.29389099401305,None,None,,317.29389099401305,None,1.5,47,318.79813929699594,None,None,0,318.79813929699594,None,You lost $0.20!,-10.0,5,38,0.5,38.297872340425535,0.3066520099431121,"[1, 0]",49.99999999999999,36,3,,,036,Scanner,1,2019_Aug_25_0950,MID,3.1.5,23.93116243320445,
SmallPun,2500,0,47,47,47,,320.7771871460136,None,2500,322.79440600500675,None,1,0.41390195200801827,322.79440600500675,None,1.5,48,325.29687546700006,None,1,1,325.29687546700006,None,You did not lose $0.20!,-10.0,5,39,0.48,39.58333333333333,0.30827168184087467,[],66.66666666666666,39,3,Adjusting RT...,0.3374257760006003,036,Scanner,1,2019_Aug_25_0950,MID,3.1.5,23.93116243320445,
Triangle,3000,0,48,48,48,,327.2776825110195,None,3000,329.2952476030041,None,1,1.1219502309977543,329.2952476030041,None,1.52,49,332.2967231570219,None,None,0,332.2967231570219,None,You did not win or lose anything!,-10.0,3,39,0.48,38.775510204081634,0.30827168184087467,[],66.66666666666666,39,3,,,036,Scanner,1,2019_Aug_25_0950,MID,3.1.5,23.93116243320445,
SmallReward,2000,0,49,49,49,,334.23740485301823,None,2000,336.2473243520071,None,None,,336.2473243520071,None,1.52,50,338.25516781400074,None,1,1,338.25516781400074,None,You won $0.20!,-9.8,2,40,0.48,40.0,0.3086629497993272,[1],66.66666666666666,39,3,,0.3160970410099253,036,Scanner,1,2019_Aug_25_0950,MID,3.1.5,23.93116243320445,
,,,,,,,,,,,,,,,,,,,,,,,,,,,,,,,,,,,,,036,Scanner,1,2019_Aug_25_0950,MID,3.1.5,23.93116243320445,
