Condition,FixationDur,trials.thisRepN,trials.thisTrialN,trials.thisN,trials.thisIndex,TrialOrder,cueImage.started,cueImage.stopped,FixationDur,fixation.started,fixation.stopped,fixationResp.keys,fixationResp.started,fixationResp.stopped,feedbackDur,Trial counter,Target.started,Target.stopped,probeResp.keys,probeResp.corr,probeResp.started,probeResp.stopped,msg,TrackEarnings,TrialType,NonNeutralTrialsNum,probeDur,percentacc_total,meanrt,UserAcc,Acc,AdjTrial,AdjTrialInc,probeResp.rt,AdjRTmsg,participant,prac_or_scan,run,date,expName,psychopyVersion,frameRate,
LgReward,1500,0,0,0,0,TimeVersion7.csv,24.162329749990022,None,1500,26.16037809898262,None,None,26.16037809898262,None,1.5,1,27.664973863982596,None,None,0,27.664973863982596,None,You did not win $5.00!,0,1,1,0.5,0.0,nan,[0],0,0,3,,,043,Scanner,1,2019_Aug_24_1246,MID,3.1.5,24.018650885586013,
LgReward,4000,0,1,1,1,,29.64374459499959,None,4000,31.663362747000065,None,None,31.663362747000065,None,1.5,2,35.680083929997636,None,None,0,35.680083929997636,None,You did not win $5.00!,0,1,2,0.5,0.0,nan,"[0, 0]",0,0,3,,,043,Scanner,1,2019_Aug_24_1246,MID,3.1.5,24.018650885586013,
SmallReward,2500,0,2,2,2,,37.644380747980904,None,2500,39.66478350799298,None,None,39.66478350799298,None,1.5,3,42.184044256981,None,1,1,42.184044256981,None,You won $0.20!,0.2,2,3,0.5,33.33333333333333,0.34393188398098573,[],33.33333333333333,3,3,0.34393188398098573,Adjusting RT...,043,Scanner,1,2019_Aug_24_1246,MID,3.1.5,24.018650885586013,
SmallReward,4000,0,3,3,3,,44.145182221982395,None,4000,46.165187641978264,None,None,46.165187641978264,None,1.5,4,50.18202163398382,None,None,0,50.18202163398382,None,You did not win $0.20!,0.2,2,4,0.5,25.0,0.34393188398098573,[0],33.33333333333333,3,3,,,043,Scanner,1,2019_Aug_24_1246,MID,3.1.5,24.018650885586013,
LgReward,2000,0,4,4,4,,52.14551514497725,None,2000,54.166311421984574,None,None,54.166311421984574,None,1.5,5,56.181706988980295,None,None,0,56.181706988980295,None,You did not win $5.00!,0.2,1,5,0.5,20.0,0.34393188398098573,"[0, 0]",33.33333333333333,3,3,,,043,Scanner,1,2019_Aug_24_1246,MID,3.1.5,24.018650885586013,
Triangle,3000,0,5,5,5,,58.14571028799401,None,3000,60.16687438398367,None,None,60.16687438398367,None,1.5,6,63.16802052297862,None,None,0,63.16802052297862,None,You did not win or lose anything!,0.2,3,5,0.5,16.666666666666664,0.34393188398098573,"[0, 0]",33.33333333333333,3,3,,,043,Scanner,1,2019_Aug_24_1246,MID,3.1.5,24.018650885586013,
SmallPun,1500,0,6,6,6,,65.14587409800151,None,1500,67.16762931499397,None,None,67.16762931499397,None,1.5,7,68.6678973629896,None,None,0,68.6678973629896,None,You lost $0.20!,0.0,5,6,0.5,14.285714285714285,0.34393188398098573,[],16.666666666666664,6,3,,Adjusting RT...,043,Scanner,1,2019_Aug_24_1246,MID,3.1.5,24.018650885586013,
LgPun,2000,0,7,7,7,,70.64608017899445,None,2000,72.65285385897732,None,None,72.65285385897732,None,1.5,8,74.66835471900413,None,None,0,74.66835471900413,None,You lost $5.00!,-5.0,4,7,0.5,12.5,0.34393188398098573,[0],16.666666666666664,6,3,,,043,Scanner,1,2019_Aug_24_1246,MID,3.1.5,24.018650885586013,
LgReward,3000,0,8,8,8,,76.64657326199813,None,3000,78.65329334398848,None,None,78.65329334398848,None,1.5,9,81.67570228400291,None,None,0,81.67570228400291,None,You did not win $5.00!,-5.0,1,8,0.5,11.11111111111111,0.34393188398098573,"[0, 0]",16.666666666666664,6,3,,,043,Scanner,1,2019_Aug_24_1246,MID,3.1.5,24.018650885586013,
LgPun,2000,0,9,9,9,,83.64707372599514,None,2000,85.65561788200284,None,None,85.65561788200284,None,1.5,10,87.67115863098297,None,1,1,87.67115863098297,None,You did not lose $5.00!,-5.0,4,9,0.5,20.0,0.3328685864980798,[],16.666666666666664,9,3,0.3218052890151739,Adjusting RT...,043,Scanner,1,2019_Aug_24_1246,MID,3.1.5,24.018650885586013,
Triangle,4000,0,10,10,10,,89.64668348699342,None,4000,91.65467267498025,None,None,91.65467267498025,None,1.5,11,95.67107844600105,None,None,0,95.67107844600105,None,You did not win or lose anything!,-5.0,3,9,0.5,18.181818181818183,0.3328685864980798,[],16.666666666666664,9,3,,,043,Scanner,1,2019_Aug_24_1246,MID,3.1.5,24.018650885586013,
SmallPun,3500,0,11,11,11,,97.64711778899073,None,3500,99.6556420919951,None,None,99.6556420919951,None,1.5,12,103.17177538399119,None,None,0,103.17177538399119,None,You lost $0.20!,-5.2,5,10,0.5,16.666666666666664,0.3328685864980798,[0],16.666666666666664,9,3,,,043,Scanner,1,2019_Aug_24_1246,MID,3.1.5,24.018650885586013,
SmallPun,1500,0,12,12,12,,105.14789069499238,None,1500,107.15663044000394,None,None,107.15663044000394,None,1.5,13,108.6722407299967,None,None,0,108.6722407299967,None,You lost $0.20!,-5.4,5,11,0.5,15.384615384615385,0.3328685864980798,"[0, 0]",16.666666666666664,9,3,,,043,Scanner,1,2019_Aug_24_1246,MID,3.1.5,24.018650885586013,
LgPun,1500,0,13,13,13,,110.64817203799612,None,1500,112.6575319429976,None,None,112.6575319429976,None,1.5,14,114.17282671597786,None,None,0,114.17282671597786,None,You lost $5.00!,-10.4,4,12,0.5,14.285714285714285,0.3328685864980798,[],16.666666666666664,12,3,,Adjusting RT...,043,Scanner,1,2019_Aug_24_1246,MID,3.1.5,24.018650885586013,
SmallReward,2000,0,14,14,14,,116.14795853800024,None,2000,118.15810357398004,None,None,118.15810357398004,None,1.5,15,120.18247668098775,None,1,1,120.18247668098775,None,You won $0.20!,-10.200000000000001,2,13,0.5,20.0,0.34772094000557746,[1],16.666666666666664,12,3,0.3774256470205728,,043,Scanner,1,2019_Aug_24_1246,MID,3.1.5,24.018650885586013,
SmallPun,2000,0,15,15,15,,122.14868243798264,None,2000,124.15629349698429,None,None,124.15629349698429,None,1.5,16,126.15714772097999,None,None,0,126.15714772097999,None,You lost $0.20!,-10.4,5,14,0.5,18.75,0.34772094000557746,"[1, 0]",16.666666666666664,12,3,,,043,Scanner,1,2019_Aug_24_1246,MID,3.1.5,24.018650885586013,
LgPun,1500,0,16,16,16,,128.1498156739981,None,1500,130.15412520599784,None,None,130.15412520599784,None,1.5,17,131.66720287298085,None,None,0,131.66720287298085,None,You lost $5.00!,-15.4,4,15,0.5,17.647058823529413,0.34772094000557746,[],16.666666666666664,15,3,,Adjusting RT...,043,Scanner,1,2019_Aug_24_1246,MID,3.1.5,24.018650885586013,
LgReward,3500,0,17,17,17,,133.64820593199693,None,3500,135.6541416529799,None,None,135.6541416529799,None,1.5,18,139.19128816598095,None,None,0,139.19128816598095,None,You did not win $5.00!,-15.4,1,16,0.5,16.666666666666664,0.34772094000557746,[0],16.666666666666664,15,3,,,043,Scanner,1,2019_Aug_24_1246,MID,3.1.5,24.018650885586013,
Triangle,1500,0,18,18,18,,141.1491619469889,None,1500,143.1598651179811,None,None,143.1598651179811,None,1.5,19,144.66829757098458,None,None,0,144.66829757098458,None,You did not win or lose anything!,-15.4,3,16,0.5,15.789473684210526,0.34772094000557746,[0],16.666666666666664,15,3,,,043,Scanner,1,2019_Aug_24_1246,MID,3.1.5,24.018650885586013,
SmallPun,2000,0,19,19,19,,146.64962275198195,None,2000,148.66246647699154,None,None,148.66246647699154,None,1.5,20,150.66897485399386,None,None,0,150.66897485399386,None,You lost $0.20!,-15.6,5,17,0.5,15.0,0.34772094000557746,"[0, 0]",16.666666666666664,15,3,,,043,Scanner,1,2019_Aug_24_1246,MID,3.1.5,24.018650885586013,
Triangle,2000,0,20,20,20,,152.6498094839917,None,2000,154.65584011099418,None,None,154.65584011099418,None,1.5,21,156.6690253620036,None,1,1,156.6690253620036,None,You did not win or lose anything!,-15.6,3,17,0.5,19.047619047619047,0.36002352775540203,"[0, 0]",16.666666666666664,15,3,0.3969312910048757,,043,Scanner,1,2019_Aug_24_1246,MID,3.1.5,24.018650885586013,
SmallReward,1500,0,21,21,21,,158.6503894289781,None,1500,160.6637038399931,None,None,160.6637038399931,None,1.5,22,162.18517838598927,None,None,0,162.18517838598927,None,You did not win $0.20!,-15.6,2,18,0.5,18.181818181818183,0.36002352775540203,[],16.666666666666664,18,3,,Adjusting RT...,043,Scanner,1,2019_Aug_24_1246,MID,3.1.5,24.018650885586013,
Triangle,1500,0,22,22,22,,164.150542613992,None,1500,166.16434565300005,None,None,166.16434565300005,None,1.5,23,167.67033674698905,None,None,0,167.67033674698905,None,You did not win or lose anything!,-15.6,3,18,0.5,17.391304347826086,0.36002352775540203,[],16.666666666666664,18,3,,,043,Scanner,1,2019_Aug_24_1246,MID,3.1.5,24.018650885586013,
SmallReward,3000,0,23,23,23,,169.650674117991,None,3000,171.664939166978,None,None,171.664939166978,None,1.5,24,174.6940676579834,None,None,0,174.6940676579834,None,You did not win $0.20!,-15.6,2,19,0.5,16.666666666666664,0.36002352775540203,[0],16.666666666666664,18,3,,,043,Scanner,1,2019_Aug_24_1246,MID,3.1.5,24.018650885586013,
LgReward,1500,0,24,24,24,,176.65283910397557,None,1500,178.6651915499824,None,None,178.6651915499824,None,1.5,25,180.180529114994,None,None,0,180.180529114994,None,You did not win $5.00!,-15.6,1,20,0.5,16.0,0.36002352775540203,"[0, 0]",16.666666666666664,18,3,,,043,Scanner,1,2019_Aug_24_1246,MID,3.1.5,24.018650885586013,
Triangle,2000,0,25,25,25,,182.15276274300413,None,2000,184.15588312997716,None,None,184.15588312997716,None,1.5,26,186.16918396297842,None,None,0,186.16918396297842,None,You did not win or lose anything!,-15.6,3,20,0.5,15.384615384615385,0.36002352775540203,"[0, 0]",16.666666666666664,18,3,,,043,Scanner,1,2019_Aug_24_1246,MID,3.1.5,24.018650885586013,
SmallReward,2000,0,26,26,26,,188.15167743698112,None,2000,190.16746250598226,None,None,190.16746250598226,None,1.5,27,192.18389916798333,None,1,1,192.18389916798333,None,You won $0.20!,-15.4,2,21,0.5,18.51851851851852,0.35700941320392304,[],16.666666666666664,21,3,0.34495295499800704,Adjusting RT...,043,Scanner,1,2019_Aug_24_1246,MID,3.1.5,24.018650885586013,
SmallPun,1500,0,27,27,27,,194.1535617139889,None,1500,196.15436462298385,None,None,196.15436462298385,None,1.5,28,197.6693823489768,None,1,1,197.6693823489768,None,You did not lose $0.20!,-15.4,5,22,0.5,21.428571428571427,0.3534380088337154,[1],16.666666666666664,21,3,0.33558098698267713,,043,Scanner,1,2019_Aug_24_1246,MID,3.1.5,24.018650885586013,
SmallPun,3000,0,28,28,28,,199.65094611098175,None,3000,201.65536483298638,None,None,201.65536483298638,None,1.5,29,204.6710451709805,None,None,0,204.6710451709805,None,You lost $0.20!,-15.6,5,23,0.5,20.689655172413794,0.3534380088337154,"[1, 0]",16.666666666666664,21,3,,,043,Scanner,1,2019_Aug_24_1246,MID,3.1.5,24.018650885586013,
Triangle,1500,0,29,29,29,,206.65184024200425,None,1500,208.6702739619941,None,None,208.6702739619941,None,1.5,30,210.1710920459882,None,None,0,210.1710920459882,None,You did not win or lose anything!,-15.6,3,23,0.5,20.0,0.3534380088337154,"[1, 0]",16.666666666666664,21,3,,,043,Scanner,1,2019_Aug_24_1246,MID,3.1.5,24.018650885586013,
SmallReward,1500,0,30,30,30,,212.15226471499773,None,1500,214.17075960399234,None,None,214.17075960399234,None,1.5,31,215.68602231997647,None,None,0,215.68602231997647,None,You did not win $0.20!,-15.6,2,24,0.5,19.35483870967742,0.3534380088337154,[],33.33333333333333,24,3,,Adjusting RT...,043,Scanner,1,2019_Aug_24_1246,MID,3.1.5,24.018650885586013,
SmallReward,3500,0,31,31,31,,217.65286411199486,None,3500,219.67093340097927,None,None,219.67093340097927,None,1.5,32,223.18861430097604,None,1,1,223.18861430097604,None,You won $0.20!,-15.4,2,25,0.5,21.875,0.35413226185898694,[1],33.33333333333333,24,3,0.3582977800106164,,043,Scanner,1,2019_Aug_24_1246,MID,3.1.5,24.018650885586013,
LgReward,1500,0,32,32,32,,225.1521865419927,None,1500,227.1724706379755,None,None,227.1724706379755,None,1.5,33,228.68964414400398,None,None,0,228.68964414400398,None,You did not win $5.00!,-15.4,1,26,0.5,21.21212121212121,0.35413226185898694,"[1, 0]",33.33333333333333,24,3,,,043,Scanner,1,2019_Aug_24_1246,MID,3.1.5,24.018650885586013,
LgReward,2500,0,33,33,33,,230.65840283798752,None,2500,232.6731658699864,None,None,232.6731658699864,None,1.5,34,235.1902732839808,None,None,0,235.1902732839808,None,You did not win $5.00!,-15.4,1,27,0.5,20.588235294117645,0.35413226185898694,[],33.33333333333333,27,3,,Adjusting RT...,043,Scanner,1,2019_Aug_24_1246,MID,3.1.5,24.018650885586013,
SmallPun,2500,0,34,34,34,,237.153270477982,None,2500,239.16101419299957,None,None,239.16101419299957,None,1.5,35,241.67448664898984,None,None,0,241.67448664898984,None,You lost $0.20!,-15.6,5,28,0.5,20.0,0.35413226185898694,[0],33.33333333333333,27,3,,,043,Scanner,1,2019_Aug_24_1246,MID,3.1.5,24.018650885586013,
SmallPun,4000,0,35,35,35,,243.65420388398343,None,4000,245.6751617419941,None,None,245.6751617419941,None,1.5,36,249.6754747889936,None,None,0,249.6754747889936,None,You lost $0.20!,-15.799999999999999,5,29,0.5,19.444444444444446,0.35413226185898694,"[0, 0]",33.33333333333333,27,3,,,043,Scanner,1,2019_Aug_24_1246,MID,3.1.5,24.018650885586013,
SmallReward,1500,0,36,36,36,,251.6533149809984,None,1500,253.6603811949899,None,None,253.6603811949899,None,1.5,37,255.18413825100288,None,None,0,255.18413825100288,None,You did not win $0.20!,-15.799999999999999,2,30,0.5,18.91891891891892,0.35413226185898694,[],16.666666666666664,30,3,,Adjusting RT...,043,Scanner,1,2019_Aug_24_1246,MID,3.1.5,24.018650885586013,
SmallPun,1500,0,37,37,37,,257.1542830010003,None,1500,259.1783104269998,None,None,259.1783104269998,None,1.5,38,260.6768085289805,None,None,0,260.6768085289805,None,You lost $0.20!,-15.999999999999998,5,31,0.5,18.421052631578945,0.35413226185898694,[0],16.666666666666664,30,3,,,043,Scanner,1,2019_Aug_24_1246,MID,3.1.5,24.018650885586013,
LgPun,1500,0,38,38,38,,262.6549173499807,None,1500,264.66145334299654,None,None,264.66145334299654,None,1.5,39,266.17716015997576,None,None,0,266.17716015997576,None,You lost $5.00!,-21.0,4,32,0.5,17.94871794871795,0.35413226185898694,"[0, 0]",16.666666666666664,30,3,,,043,Scanner,1,2019_Aug_24_1246,MID,3.1.5,24.018650885586013,
Triangle,1500,0,39,39,39,,268.15464428797713,None,1500,270.1625920829829,None,None,270.1625920829829,None,1.5,40,271.6773160150042,None,None,0,271.6773160150042,None,You did not win or lose anything!,-21.0,3,32,0.5,17.5,0.35413226185898694,"[0, 0]",16.666666666666664,30,3,,,043,Scanner,1,2019_Aug_24_1246,MID,3.1.5,24.018650885586013,
Triangle,2500,0,40,40,40,,273.65549614297925,None,2500,275.6628234410018,None,None,275.6628234410018,None,1.5,41,278.17865275099757,None,None,0,278.17865275099757,None,You did not win or lose anything!,-21.0,3,32,0.5,17.073170731707318,0.35413226185898694,"[0, 0]",16.666666666666664,30,3,,,043,Scanner,1,2019_Aug_24_1246,MID,3.1.5,24.018650885586013,
LgPun,1500,0,41,41,41,,280.15555571898585,None,1500,282.16326041700086,None,None,282.16326041700086,None,1.5,42,283.6795587060042,None,None,0,283.6795587060042,None,You lost $5.00!,-26.0,4,33,0.5,16.666666666666664,0.35413226185898694,[],0.0,33,3,,Adjusting RT...,043,Scanner,1,2019_Aug_24_1246,MID,3.1.5,24.018650885586013,
LgPun,4000,0,42,42,42,,285.6558108110039,None,4000,287.66066452499945,None,None,287.66066452499945,None,1.5,43,291.6807808689773,None,None,0,291.6807808689773,None,You lost $5.00!,-31.0,4,34,0.5,16.27906976744186,0.35413226185898694,[0],0.0,33,3,,,043,Scanner,1,2019_Aug_24_1246,MID,3.1.5,24.018650885586013,
Triangle,3500,0,43,43,43,,293.656018847978,None,3500,295.66481238399865,None,None,295.66481238399865,None,1.5,44,299.1808722409769,None,None,0,299.1808722409769,None,You did not win or lose anything!,-31.0,3,34,0.5,15.909090909090908,0.35413226185898694,[0],0.0,33,3,,,043,Scanner,1,2019_Aug_24_1246,MID,3.1.5,24.018650885586013,
SmallReward,1500,0,44,44,44,,301.15674062797916,None,1500,303.1624518559838,None,None,303.1624518559838,None,1.5,45,304.7203042199835,None,None,0,304.7203042199835,None,You did not win $0.20!,-31.0,2,35,0.5,15.555555555555555,0.35413226185898694,"[0, 0]",0.0,33,3,,,043,Scanner,1,2019_Aug_24_1246,MID,3.1.5,24.018650885586013,
LgReward,2000,0,45,45,45,,306.65702975398744,None,2000,308.6672658419993,None,None,308.6672658419993,None,1.5,46,310.6870320979797,None,None,0,310.6870320979797,None,You did not win $5.00!,-31.0,1,36,0.5,15.217391304347828,0.35413226185898694,[],0.0,36,3,,Adjusting RT...,043,Scanner,1,2019_Aug_24_1246,MID,3.1.5,24.018650885586013,
LgReward,1500,0,46,46,46,,312.6574215349974,None,1500,314.6676350069756,None,None,314.6676350069756,None,1.5,47,316.1863378720009,None,1,1,316.1863378720009,None,You won $5.00!,-26.0,1,37,0.5,17.02127659574468,0.35081927550345426,[1],0.0,36,3,0.3276283710147254,,043,Scanner,1,2019_Aug_24_1246,MID,3.1.5,24.018650885586013,
LgPun,3000,0,47,47,47,,318.15874565398553,None,3000,320.16739264599164,None,None,320.16739264599164,None,1.5,48,323.1832940839813,None,1,1,323.1832940839813,None,You did not lose $5.00!,-26.0,4,38,0.5,18.75,0.34869176322697765,"[1, 1]",0.0,36,3,0.33167166501516476,,043,Scanner,1,2019_Aug_24_1246,MID,3.1.5,24.018650885586013,
LgPun,3500,0,48,48,48,,325.1575164269889,None,3500,327.1688307430013,None,None,327.1688307430013,None,1.5,49,330.67634275299497,None,1,1,330.67634275299497,None,You did not lose $5.00!,-26.0,4,39,0.5,20.408163265306122,0.3457711981056491,[],50.0,39,3,0.31948611201369204,Adjusting RT...,043,Scanner,1,2019_Aug_24_1246,MID,3.1.5,24.018650885586013,
LgPun,2500,0,49,49,49,,332.6579610669869,None,2500,334.6619913169998,None,None,334.6619913169998,None,1.5,50,337.18573178499355,None,None,0,337.18573178499355,None,You lost $5.00!,-31.0,4,40,0.5,20.0,0.3457711981056491,[0],50.0,39,3,,,043,Scanner,1,2019_Aug_24_1246,MID,3.1.5,24.018650885586013,
,,,,,,,,,,,,,,,,,,,,,,,,,,,,,,,,,,,,043,Scanner,1,2019_Aug_24_1246,MID,3.1.5,24.018650885586013,
