Condition,FixationDur,trials.thisRepN,trials.thisTrialN,trials.thisN,trials.thisIndex,TrialOrder,cueImage.started,cueImage.stopped,FixationDur,fixation.started,fixation.stopped,fixationResp.keys,fixationResp.started,fixationResp.stopped,feedbackDur,Trial counter,Target.started,Target.stopped,probeResp.keys,probeResp.corr,probeResp.started,probeResp.stopped,msg,TrackEarnings,TrialType,NonNeutralTrialsNum,probeDur,percentacc_total,meanrt,UserAcc,Acc,AdjTrial,AdjTrialInc,feedback_resp.keys,OverallRT,probeResp.rt,AdjRTmsg,feedback_resp.rt,fixationResp.rt,participant,prac_or_scan,run,date,expName,psychopyVersion,frameRate,
SmallPun,2000,0,0,0,0,TimeVersion5.csv,34.08423965399561,None,2000,36.11840604498866,None,None,36.11840604498866,None,1.7000000000000002,1,38.156855267996434,None,None,0,38.156855267996434,None,You lost $0.20!,-0.2,5,1,0.29999999999999993,0.0,nan,[0],0,0,3,None,,,,,,044,Scanner,1,2019_Sep_07_1643,MID,3.1.5,59.91576598558163,
LgReward,4000,0,1,1,1,,40.217969001998426,None,4000,42.25233449898951,None,None,42.25233449898951,None,1.7000000000000002,2,46.302956157989684,None,1,1,46.302956157989684,None,You won $5.00!,4.8,1,2,0.29999999999999993,50.0,0.26135277601133566,"[0, 1]",0,0,3,None,0.26135277601133566,0.26135277601133566,,,,044,Scanner,1,2019_Sep_07_1643,MID,3.1.5,59.91576598558163,
SmallPun,3000,0,2,2,2,,48.35789173599915,None,3000,50.38639944999886,None,None,50.38639944999886,None,1.7000000000000002,3,53.420460200999514,None,1,1,53.420460200999514,None,You did not lose $0.20!,4.8,5,3,0.2799999999999999,66.66666666666666,0.2541114425039268,[],66.66666666666666,3,3,None,0.24687010899651796,0.24687010899651796,Adjusting RT...,,,044,Scanner,1,2019_Sep_07_1643,MID,3.1.5,59.91576598558163,
SmallReward,2000,0,3,3,3,,55.47043097799178,None,2000,57.50363518399536,None,None,57.50363518399536,None,1.7200000000000002,4,59.55447178099712,None,None,0,59.55447178099712,None,You did not win $0.20!,4.8,2,4,0.2799999999999999,50.0,0.2541114425039268,[0],66.66666666666666,3,3,None,0.24687010899651796,,,,,044,Scanner,1,2019_Sep_07_1643,MID,3.1.5,59.91576598558163,
LgPun,2000,0,4,4,4,,61.608535947991186,None,2000,63.638742061986704,None,None,63.638742061986704,None,1.7200000000000002,5,65.67134844699467,None,1,1,65.67134844699467,None,You did not lose $5.00!,4.8,4,5,0.2799999999999999,60.0,0.2503863553380749,"[0, 1]",66.66666666666666,3,3,None,0.24293618100637104,0.24293618100637104,,,,044,Scanner,1,2019_Sep_07_1643,MID,3.1.5,59.91576598558163,
Triangle,2500,0,5,5,5,,67.7089571129909,None,2500,69.73870594499749,None,None,69.73870594499749,None,1.7200000000000002,6,72.2720597209991,None,1,1,72.2720597209991,None,You did not win or lose anything!,4.8,3,5,0.2799999999999999,66.66666666666666,0.2485899037528725,"[0, 1]",66.66666666666666,3,3,None,0.2432005489972653,0.2432005489972653,,,,044,Scanner,1,2019_Sep_07_1643,MID,3.1.5,59.91576598558163,
SmallReward,2500,0,6,6,6,,74.32256014199811,None,2500,76.35682193399407,None,None,76.35682193399407,None,1.7200000000000002,7,78.92339517099026,None,1,1,78.92339517099026,None,You won $0.20!,5.0,2,6,0.2599999999999999,71.42857142857143,0.248245616001077,[],66.66666666666666,6,3,None,0.24686846499389503,0.24686846499389503,Adjusting RT...,,,044,Scanner,1,2019_Sep_07_1643,MID,3.1.5,59.91576598558163,
SmallReward,1500,0,7,7,7,,80.9740590559959,None,1500,83.00709189599729,None,None,83.00709189599729,None,1.7400000000000002,8,84.55695215398737,None,None,0,84.55695215398737,None,You did not win $0.20!,5.0,2,7,0.2599999999999999,62.5,0.248245616001077,[0],66.66666666666666,6,3,1,0.25713613498897747,,,-0.002863865011022426,,044,Scanner,1,2019_Sep_07_1643,MID,3.1.5,59.91576598558163,
LgReward,1500,0,8,8,8,,86.60717444498732,None,1500,88.64133257399953,None,None,88.64133257399953,None,1.7400000000000002,9,90.19152163299441,None,None,0,90.19152163299441,None,You did not win $5.00!,5.0,1,8,0.2599999999999999,55.55555555555556,0.248245616001077,"[0, 0]",66.66666666666666,6,3,1,0.2578810230095404,,,-0.002118976990459487,,044,Scanner,1,2019_Sep_07_1643,MID,3.1.5,59.91576598558163,
SmallPun,2000,0,9,9,9,,92.24375684499682,None,2000,94.27609637398564,None,None,94.27609637398564,None,1.7400000000000002,10,96.30895896899165,None,None,0,96.30895896899165,None,You lost $0.20!,4.8,5,9,0.2999999999999999,50.0,0.248245616001077,[],33.33333333333333,9,3,1,0.2916820710059254,,Adjusting RT...,-0.008317928994074464,,044,Scanner,1,2019_Sep_07_1643,MID,3.1.5,59.91576598558163,
LgReward,2500,0,10,10,10,,98.37580823199823,None,2500,100.40958203899208,None,None,100.40958203899208,None,1.7000000000000002,11,102.95943899398844,None,1,1,102.95943899398844,None,You won $5.00!,9.8,1,10,0.2999999999999999,54.54545454545454,0.24651088666723808,[1],33.33333333333333,9,3,None,0.23783723999804351,0.23783723999804351,,,,044,Scanner,1,2019_Sep_07_1643,MID,3.1.5,59.91576598558163,
LgPun,3500,0,11,11,11,,104.99460084098973,None,3500,107.02735920499254,None,None,107.02735920499254,None,1.7000000000000002,12,110.56041141199239,None,1,1,110.56041141199239,None,You did not lose $5.00!,9.8,4,11,0.2999999999999999,58.333333333333336,0.2442770302856973,"[1, 1]",33.33333333333333,9,3,None,0.23087389199645258,0.23087389199645258,,,,044,Scanner,1,2019_Sep_07_1643,MID,3.1.5,59.91576598558163,
SmallPun,3500,0,12,12,12,,112.62845304099028,None,3500,114.66174181699171,None,None,114.66174181699171,None,1.7000000000000002,13,118.1950270189991,None,1,1,118.1950270189991,None,You did not lose $0.20!,9.8,5,12,0.3199999999999999,61.53846153846154,0.24414987062482396,[],50.0,12,3,None,0.2432597529987106,0.2432597529987106,Adjusting RT...,,,044,Scanner,1,2019_Sep_07_1643,MID,3.1.5,59.91576598558163,
Triangle,1500,0,13,13,13,,120.22858059399005,None,1500,122.26220878699678,None,None,122.26220878699678,None,1.6800000000000002,14,123.79517383599887,None,None,0,123.79517383599887,None,You did not win or lose anything!,9.8,3,12,0.3199999999999999,57.14285714285714,0.24414987062482396,[],50.0,12,3,1,0.3241488190036033,,,0.004148819003603421,,044,Scanner,1,2019_Sep_07_1643,MID,3.1.5,59.91576598558163,
LgPun,4000,0,14,14,14,,125.82935957699374,None,4000,127.86315897799795,None,None,127.86315897799795,None,1.6800000000000002,15,131.89652141099214,None,1,1,131.89652141099214,None,You did not lose $5.00!,9.8,4,13,0.3199999999999999,60.0,0.2423269427769507,[1],50.0,12,3,None,0.22774351999396458,0.22774351999396458,,,,044,Scanner,1,2019_Sep_07_1643,MID,3.1.5,59.91576598558163,
Triangle,4000,0,15,15,15,,133.9301842279965,None,4000,135.96406563199707,None,None,135.96406563199707,None,1.6800000000000002,16,139.99640907499997,None,1,1,139.99640907499997,None,You did not win or lose anything!,9.8,3,13,0.3199999999999999,62.5,0.244278196299274,[1],50.0,12,3,None,0.2618394780001836,0.2618394780001836,,,,044,Scanner,1,2019_Sep_07_1643,MID,3.1.5,59.91576598558163,
LgPun,3000,0,16,16,16,,142.03028001899656,None,3000,144.0646529939986,None,None,144.0646529939986,None,1.6800000000000002,17,147.09760001598625,None,1,1,147.09760001598625,None,You did not lose $5.00!,9.8,4,14,0.3199999999999999,64.70588235294117,0.24549530999899039,"[1, 1]",50.0,12,3,None,0.25766644699615426,0.25766644699615426,,,,044,Scanner,1,2019_Sep_07_1643,MID,3.1.5,59.91576598558163,
SmallPun,1500,0,17,17,17,,149.13106108699867,None,1500,151.1643155599886,None,None,151.1643155599886,None,1.6800000000000002,18,152.6974963449902,None,1,1,152.6974963449902,None,You did not lose $0.20!,9.8,5,15,0.2699999999999999,66.66666666666666,0.24835170991597502,[],100.0,15,3,None,0.27977210900280625,0.27977210900280625,Adjusting RT...,,,044,Scanner,1,2019_Sep_07_1643,MID,3.1.5,59.91576598558163,
LgReward,2000,0,18,18,18,,154.7483324809873,None,2000,156.78096339698823,None,None,156.78096339698823,None,1.73,19,158.8312027859938,None,1,1,158.8312027859938,None,You won $5.00!,14.8,1,16,0.2699999999999999,68.42105263157895,0.24562684615375474,[1],100.0,15,3,None,0.21292848100711126,0.21292848100711126,,,,044,Scanner,1,2019_Sep_07_1643,MID,3.1.5,59.91576598558163,
SmallPun,4000,0,19,19,19,,160.86478566999722,None,4000,162.89841027099465,None,None,162.89841027099465,None,1.73,20,166.93176269299875,None,None,0,166.93176269299875,None,You lost $0.20!,14.600000000000001,5,17,0.2699999999999999,65.0,0.24562684615375474,"[1, 0]",100.0,15,3,1,0.2815998929977649,,,0.011599892997764982,,044,Scanner,1,2019_Sep_07_1643,MID,3.1.5,59.91576598558163,
SmallReward,1500,0,20,20,20,,168.98196022099,None,1500,171.0157695129892,None,None,171.0157695129892,None,1.73,21,172.56598504498834,None,None,0,172.56598504498834,None,You did not win $0.20!,14.600000000000001,2,18,0.24999999999999992,61.904761904761905,0.24562684615375474,[],66.66666666666666,18,3,1,0.32825598699855607,,Adjusting RT...,0.07825598699855618,,044,Scanner,1,2019_Sep_07_1643,MID,3.1.5,59.91576598558163,
LgPun,1500,0,21,21,21,,174.5990339849959,None,1500,176.6331462859962,None,None,176.6331462859962,None,1.75,22,178.16665068699513,None,None,0,178.16665068699513,None,You lost $5.00!,9.600000000000001,4,19,0.24999999999999992,59.09090909090909,0.24562684615375474,[0],66.66666666666666,18,3,1,0.2698220310121541,,,0.019822031012154184,,044,Scanner,1,2019_Sep_07_1643,MID,3.1.5,59.91576598558163,
LgReward,3500,0,22,22,22,,180.2164924289973,None,3500,182.25009784499707,None,None,182.25009784499707,None,1.75,23,185.80031338399567,None,None,0,185.80031338399567,None,You did not win $5.00!,9.600000000000001,1,20,0.24999999999999992,56.52173913043478,0.24562684615375474,"[0, 0]",66.66666666666666,18,3,1,0.27146397899196006,,,0.021463978991960175,,044,Scanner,1,2019_Sep_07_1643,MID,3.1.5,59.91576598558163,
SmallReward,4000,0,23,23,23,,187.8503800489998,None,4000,189.8842965419899,None,1,189.8842965419899,None,1.75,24,193.93347762798658,None,None,0,193.93347762798658,None,You did not win $0.20!,9.600000000000001,2,21,0.29999999999999993,54.166666666666664,0.24562684615375474,[],16.666666666666664,21,3,1,0.32055238200409797,,Adjusting RT...,0.020552382004098035,2.5848586200008867,044,Scanner,1,2019_Sep_07_1643,MID,3.1.5,59.91576598558163,
Triangle,2000,0,24,24,24,,195.96754295298888,None,2000,198.0013017559977,None,None,198.0013017559977,None,1.7000000000000002,25,200.0508537509886,None,None,0,200.0508537509886,None,You did not win or lose anything!,9.600000000000001,3,21,0.29999999999999993,52.0,0.24562684615375474,[],16.666666666666664,21,3,1,0.32989799100032535,,,0.02989799100032542,,044,Scanner,1,2019_Sep_07_1643,MID,3.1.5,59.91576598558163,
LgPun,2000,0,25,25,25,,202.10141796698736,None,2000,204.1349256259855,None,None,204.1349256259855,None,1.7000000000000002,26,206.16788326499227,None,1,1,206.16788326499227,None,You did not lose $5.00!,9.600000000000001,4,22,0.29999999999999993,53.84615384615385,0.24510046128541166,[1],16.666666666666664,21,3,None,0.23825745799695142,0.23825745799695142,,,,044,Scanner,1,2019_Sep_07_1643,MID,3.1.5,59.91576598558163,
SmallReward,2000,0,26,26,26,,208.21804904499731,None,2000,210.25151019298937,None,None,210.25151019298937,None,1.7000000000000002,27,212.30198085699521,None,None,0,212.30198085699521,None,You did not win $0.20!,9.600000000000001,2,23,0.29999999999999993,51.85185185185185,0.24510046128541166,"[1, 0]",16.666666666666664,21,3,None,0.23825745799695142,,,,,044,Scanner,1,2019_Sep_07_1643,MID,3.1.5,59.91576598558163,
Triangle,3000,0,27,27,27,,214.3353306739882,None,3000,216.35776805698697,None,None,216.35776805698697,None,1.7000000000000002,28,219.40179383299255,None,1,1,219.40179383299255,None,You did not win or lose anything!,9.600000000000001,3,23,0.29999999999999993,53.57142857142857,0.2461253994658667,"[1, 0]",16.666666666666664,21,3,None,0.2604745339922374,0.2604745339922374,,,,044,Scanner,1,2019_Sep_07_1643,MID,3.1.5,59.91576598558163,
SmallReward,3500,0,28,28,28,,221.45287970799836,None,3500,223.48645177499566,None,None,223.48645177499566,None,1.7000000000000002,29,227.02500319399405,None,1,1,227.02500319399405,None,You won $0.20!,9.8,2,24,0.3399999999999999,55.172413793103445,0.24606353674971615,[],33.33333333333333,24,3,None,0.24513559600745793,0.24513559600745793,Adjusting RT...,,,044,Scanner,1,2019_Sep_07_1643,MID,3.1.5,59.91576598558163,
Triangle,1500,0,29,29,29,,229.06970120899496,None,1500,231.09344089598744,None,None,231.09344089598744,None,1.6600000000000001,30,232.6362308139942,None,None,0,232.6362308139942,None,You did not win or lose anything!,9.8,3,24,0.3399999999999999,53.333333333333336,0.24606353674971615,[],33.33333333333333,24,3,1,0.3368047340080374,,,-0.003195265991962515,,044,Scanner,1,2019_Sep_07_1643,MID,3.1.5,59.91576598558163,
SmallReward,1500,0,30,30,30,,234.68663021799875,None,1500,236.72020987898577,None,None,236.72020987898577,None,1.6600000000000001,31,238.2702921209857,None,None,0,238.2702921209857,None,You did not win $0.20!,9.8,2,25,0.3399999999999999,51.61290322580645,0.24606353674971615,[0],33.33333333333333,24,3,None,0.3368047340080374,,,,,044,Scanner,1,2019_Sep_07_1643,MID,3.1.5,59.91576598558163,
Triangle,2000,0,31,31,31,,240.30390024799271,None,2000,242.32780434998858,None,None,242.32780434998858,None,1.6600000000000001,32,244.37068494099367,None,1,1,244.37068494099367,None,You did not win or lose anything!,9.8,3,25,0.3399999999999999,53.125,0.24668307623463026,[0],33.33333333333333,24,3,None,0.25659570799325593,0.25659570799325593,,,,044,Scanner,1,2019_Sep_07_1643,MID,3.1.5,59.91576598558163,
LgPun,1500,0,32,32,32,,246.40382763498928,None,1500,248.42839120898861,None,None,248.42839120898861,None,1.6600000000000001,33,249.96319586898608,None,1,1,249.96319586898608,None,You did not lose $5.00!,9.8,4,26,0.3399999999999999,54.54545454545454,0.2470299218330183,"[0, 1]",33.33333333333333,24,3,None,0.2529262970056152,0.2529262970056152,,,,044,Scanner,1,2019_Sep_07_1643,MID,3.1.5,59.91576598558163,
Triangle,3500,0,33,33,33,,252.00432680199447,None,3500,254.02960868299124,None,None,254.02960868299124,None,1.6600000000000001,34,257.571250693989,None,1,1,257.571250693989,None,You did not win or lose anything!,9.8,3,26,0.3399999999999999,55.88235294117647,0.24812914084146828,"[0, 1]",33.33333333333333,24,3,None,0.2679150829935679,0.2679150829935679,,,,044,Scanner,1,2019_Sep_07_1643,MID,3.1.5,59.91576598558163,
LgPun,1500,0,34,34,34,,259.60497054699226,None,1500,261.6308511899988,None,None,261.6308511899988,None,1.6600000000000001,35,263.17135915999825,None,1,1,263.17135915999825,None,You did not lose $5.00!,9.8,4,27,0.3199999999999999,57.14285714285714,0.24906843439894147,[],66.66666666666666,27,3,None,0.2669150119909318,0.2669150119909318,Adjusting RT...,,,044,Scanner,1,2019_Sep_07_1643,MID,3.1.5,59.91576598558163,
Triangle,1500,0,35,35,35,,265.20533548599633,None,1500,267.2314110969892,None,None,267.2314110969892,None,1.6800000000000002,36,268.76644435599155,None,1,1,268.76644435599155,None,You did not win or lose anything!,9.8,3,27,0.3199999999999999,58.333333333333336,0.24924801361755403,[],66.66666666666666,27,3,None,0.25283959798980504,0.25283959798980504,,,,044,Scanner,1,2019_Sep_07_1643,MID,3.1.5,59.91576598558163,
SmallPun,1500,0,36,36,36,,270.80556192698714,None,1500,272.83207517799747,None,None,272.83207517799747,None,1.6800000000000002,37,274.3670377889939,None,1,1,274.3670377889939,None,You did not lose $0.20!,9.8,5,28,0.3199999999999999,59.45945945945946,0.24874280408932298,[1],66.66666666666666,27,3,None,0.23813340399647132,0.23813340399647132,,,,044,Scanner,1,2019_Sep_07_1643,MID,3.1.5,59.91576598558163,
LgReward,1500,0,37,37,37,,276.41612935598823,None,1500,278.4492936119932,None,None,278.4492936119932,None,1.6800000000000002,38,280.0058881439909,None,1,1,280.0058881439909,None,You won $5.00!,14.8,1,29,0.3199999999999999,60.526315789473685,0.24903174108539647,"[1, 1]",66.66666666666666,27,3,None,0.25538835499901325,0.25538835499901325,,,,044,Scanner,1,2019_Sep_07_1643,MID,3.1.5,59.91576598558163,
Triangle,1500,0,38,38,38,,282.0392548369855,None,1500,284.0669385259971,None,None,284.0669385259971,None,1.6800000000000002,39,285.6060413619998,None,1,1,285.6060413619998,None,You did not win or lose anything!,14.8,3,29,0.3199999999999999,61.53846153846154,0.25024888987354643,"[1, 1]",66.66666666666666,27,3,None,0.2782433120009955,0.2782433120009955,,,,044,Scanner,1,2019_Sep_07_1643,MID,3.1.5,59.91576598558163,
LgReward,2000,0,39,39,39,,287.6674158419919,None,2000,289.684203257988,None,None,289.684203257988,None,1.6800000000000002,40,291.7345509549923,None,1,1,291.7345509549923,None,You won $5.00!,19.8,1,30,0.2899999999999999,62.5,0.2509483494784217,[],83.33333333333333,30,3,None,0.26773537999542896,0.26773537999542896,Adjusting RT...,,,044,Scanner,1,2019_Sep_07_1643,MID,3.1.5,59.91576598558163,
LgPun,2500,0,40,40,40,,293.77340255799936,None,2500,295.8017220509937,None,None,295.8017220509937,None,1.71,41,298.3416984479991,None,1,1,298.3416984479991,None,You did not lose $5.00!,19.8,4,31,0.2899999999999999,63.41463414634146,0.25120506611375065,[1],83.33333333333333,30,3,None,0.257622981996974,0.257622981996974,,,,044,Scanner,1,2019_Sep_07_1643,MID,3.1.5,59.91576598558163,
LgReward,3000,0,41,41,41,,300.40216267999494,None,3000,302.43626965499425,None,None,302.43626965499425,None,1.71,42,305.48541005598963,None,1,1,305.48541005598963,None,You won $5.00!,24.8,1,32,0.2899999999999999,64.28571428571429,0.25078035462798587,"[1, 1]",83.33333333333333,30,3,None,0.2397378559981007,0.2397378559981007,,,,044,Scanner,1,2019_Sep_07_1643,MID,3.1.5,59.91576598558163,
LgPun,1500,0,42,42,42,,307.52401304598607,None,1500,309.553502181996,None,None,309.553502181996,None,1.71,43,311.08698071699473,None,1,1,311.08698071699473,None,You did not lose $5.00!,24.8,4,33,0.23999999999999994,65.11627906976744,0.25044146421246943,[],100.0,33,3,None,0.2412914229935268,0.2412914229935268,Adjusting RT...,,,044,Scanner,1,2019_Sep_07_1643,MID,3.1.5,59.91576598558163,
LgReward,1500,0,43,43,43,,313.1416951079882,None,1500,315.1706792479963,None,None,315.1706792479963,None,1.76,44,316.7212651949958,None,None,0,316.7212651949958,None,You did not win $5.00!,24.8,1,34,0.23999999999999994,63.63636363636363,0.25044146421246943,[0],100.0,33,3,1,0.2643487340048886,,,0.024348734004888684,,044,Scanner,1,2019_Sep_07_1643,MID,3.1.5,59.91576598558163,
SmallReward,3000,0,44,44,44,,318.78779440499784,None,3000,320.82127269399643,None,None,320.82127269399643,None,1.76,45,323.8715250239911,None,None,0,323.8715250239911,None,You did not win $0.20!,24.8,2,35,0.23999999999999994,62.22222222222222,0.25044146421246943,"[0, 0]",100.0,33,3,1,0.24479023800289718,,,0.00479023800289724,,044,Scanner,1,2019_Sep_07_1643,MID,3.1.5,59.91576598558163,
SmallPun,1500,0,45,45,45,,325.9052900199895,None,1500,327.9395553969953,None,None,327.9395553969953,None,1.76,46,329.4723684939963,None,None,0,329.4723684939963,None,You lost $0.20!,24.6,5,36,0.25999999999999995,60.86956521739131,0.25044146421246943,[],50.0,36,3,1,0.3515360759972827,,Adjusting RT...,0.09153607599728275,,044,Scanner,1,2019_Sep_07_1643,MID,3.1.5,59.91576598558163,
LgReward,1500,0,46,46,46,,331.54000437298964,None,1500,333.57308798299346,None,None,333.57308798299346,None,1.74,47,335.12360085699765,None,1,1,335.12360085699765,None,You won $5.00!,29.6,1,37,0.25999999999999995,61.702127659574465,0.2496214304806801,[1],50.0,36,3,None,0.2266604859905783,0.2266604859905783,,,,044,Scanner,1,2019_Sep_07_1643,MID,3.1.5,59.91576598558163,
SmallPun,2500,0,47,47,47,,337.17333783599315,None,2500,339.20691773999715,None,None,339.20691773999715,None,1.74,48,341.7408114689897,None,1,1,341.7408114689897,None,You did not lose $0.20!,29.6,5,38,0.25999999999999995,62.5,0.24861640543094837,"[1, 1]",50.0,36,3,None,0.21947067898872774,0.21947067898872774,,,,044,Scanner,1,2019_Sep_07_1643,MID,3.1.5,59.91576598558163,
SmallReward,1500,0,48,48,48,,343.79098293698917,None,1500,345.82524570598616,None,None,345.82524570598616,None,1.74,49,347.35772924599587,None,None,0,347.35772924599587,None,You did not win $0.20!,29.6,2,39,0.29999999999999993,61.224489795918366,0.24861640543094837,[],33.33333333333333,39,3,1,0.3156347439915407,,Adjusting RT...,0.015634743991540745,,044,Scanner,1,2019_Sep_07_1643,MID,3.1.5,59.91576598558163,
SmallPun,1500,0,49,49,49,,349.41061751799134,None,1500,351.44229391599947,None,None,351.44229391599947,None,1.7000000000000002,50,352.97577019498567,None,1,1,352.97577019498567,None,You did not lose $0.20!,29.6,5,40,0.29999999999999993,62.0,0.24851571544939127,[1],33.33333333333333,39,3,None,0.2454950160026783,0.2454950160026783,,,,044,Scanner,1,2019_Sep_07_1643,MID,3.1.5,59.91576598558163,
,,,,,,,,,,,,,,,,,,,,,,,,,,,,,,,,,,,,,,,,044,Scanner,1,2019_Sep_07_1643,MID,3.1.5,59.91576598558163,
