Condition,FixationDur,trials.thisRepN,trials.thisTrialN,trials.thisN,trials.thisIndex,TrialOrder,cueImage.started,cueImage.stopped,FixationDur,fixation.started,fixation.stopped,fixationResp.keys,fixationResp.started,fixationResp.stopped,feedbackDur,Trial counter,Target.started,Target.stopped,probeResp.keys,probeResp.corr,probeResp.started,probeResp.stopped,msg,TrackEarnings,TrialType,NonNeutralTrialsNum,probeDur,percentacc_total,meanrt,UserAcc,Acc,AdjTrial,AdjTrialInc,feedback_resp.keys,OverallRT,fixationResp.rt,feedback_resp.rt,AdjRTmsg,probeResp.rt,participant,prac_or_scan,run,date,expName,psychopyVersion,frameRate,
LgReward,1500,0,0,0,0,TimeVersion7.csv,25.77358887599985,None,1500,27.807640382998216,None,None,27.807640382998216,None,1.73,1,29.35728073700011,None,None,0,29.35728073700011,None,You did not win $5.00!,0,1,1,0.2699999999999999,0.0,nan,[0],0,0,3,None,,,,,,046,Scanner,1,2019_Sep_06_1529,MID,3.1.5,59.79377521634407,
LgReward,4000,0,1,1,1,,31.424097576993518,None,4000,33.4584719409977,None,1,33.4584719409977,None,1.73,2,37.508639440995466,None,None,0,37.508639440995466,None,You did not win $5.00!,0,1,2,0.2699999999999999,0.0,nan,"[0, 0]",0,0,3,1,0.4002754019998246,1.8425803139980417,0.13027540199982468,,,046,Scanner,1,2019_Sep_06_1529,MID,3.1.5,59.79377521634407,
SmallReward,2500,0,2,2,2,,39.5595456749943,None,2500,41.593327158996544,None,None,41.593327158996544,None,1.73,3,44.15988695199485,None,None,0,44.15988695199485,None,You did not win $0.20!,0,2,3,0.3399999999999999,0.0,nan,[],0.0,3,3,1,0.3377720379974925,,-0.002227962002507411,Adjusting RT...,,046,Scanner,1,2019_Sep_06_1529,MID,3.1.5,59.79377521634407,
SmallReward,4000,0,3,3,3,,46.22628122599417,None,4000,48.260453995993885,None,None,48.260453995993885,None,1.6600000000000001,4,52.31111991799844,None,None,0,52.31111991799844,None,You did not win $0.20!,0,2,4,0.3399999999999999,0.0,nan,[0],0.0,3,3,1,0.34678743299795306,,0.006787432997953147,,,046,Scanner,1,2019_Sep_06_1529,MID,3.1.5,59.79377521634407,
LgReward,2000,0,4,4,4,,54.361811511997075,None,2000,56.395040867995704,None,None,56.395040867995704,None,1.6600000000000001,5,58.44509807599388,None,None,0,58.44509807599388,None,You did not win $5.00!,0,1,5,0.3399999999999999,0.0,nan,"[0, 0]",0.0,3,3,1,0.3643005880038253,,0.024300588003825396,,,046,Scanner,1,2019_Sep_06_1529,MID,3.1.5,59.79377521634407,
Triangle,3000,0,5,5,5,,60.47860438600037,None,3000,62.51276831399446,None,None,62.51276831399446,None,1.6600000000000001,6,65.5457487599997,None,1,1,65.5457487599997,None,You did not win or lose anything!,0,3,5,0.3399999999999999,16.666666666666664,0.24129490400082432,"[0, 0]",0.0,3,3,None,0.24129490400082432,,,,0.24129490400082432,046,Scanner,1,2019_Sep_06_1529,MID,3.1.5,59.79377521634407,
SmallPun,1500,0,6,6,6,,67.57923787999607,None,1500,69.61324758800038,None,None,69.61324758800038,None,1.6600000000000001,7,71.14598381499673,None,None,0,71.14598381499673,None,You lost $0.20!,-0.2,5,6,0.4099999999999999,14.285714285714285,0.24129490400082432,[],0.0,6,3,1,0.4195913789991754,,0.009591378999175504,Adjusting RT...,,046,Scanner,1,2019_Sep_06_1529,MID,3.1.5,59.79377521634407,
LgPun,2000,0,7,7,7,,73.17969022899342,None,2000,75.21276943599514,None,None,75.21276943599514,None,1.59,8,77.2467362249954,None,1,1,77.2467362249954,None,You did not lose $5.00!,-0.2,4,7,0.4099999999999999,25.0,0.2498002250031277,[1],0.0,6,3,None,0.2583055460054311,,,,0.2583055460054311,046,Scanner,1,2019_Sep_06_1529,MID,3.1.5,59.79377521634407,
LgReward,3000,0,8,8,8,,79.312553922995,None,3000,81.3303603059976,None,None,81.3303603059976,None,1.59,9,84.38053548499738,None,1,1,84.38053548499738,None,You won $5.00!,4.8,1,8,0.4099999999999999,33.33333333333333,0.26133302200226655,"[1, 1]",0.0,6,3,None,0.2843986160005443,,,,0.2843986160005443,046,Scanner,1,2019_Sep_06_1529,MID,3.1.5,59.79377521634407,
LgPun,2000,0,9,9,9,,86.4138424720004,None,2000,88.44705692400021,None,None,88.44705692400021,None,1.59,10,90.48001432399906,None,1,1,90.48001432399906,None,You did not lose $5.00!,4.8,4,9,0.42999999999999994,40.0,0.2765066037518409,[],50.0,9,3,None,0.32202734900056385,,,Adjusting RT...,0.32202734900056385,046,Scanner,1,2019_Sep_06_1529,MID,3.1.5,59.79377521634407,
Triangle,4000,0,10,10,10,,92.53087211499951,None,4000,94.56422545299574,None,None,94.56422545299574,None,1.57,11,98.59779505099868,None,1,1,98.59779505099868,None,You did not win or lose anything!,4.8,3,9,0.42999999999999994,45.45454545454545,0.284231954801362,[],50.0,9,3,None,0.3151333589994465,,,,0.3151333589994465,046,Scanner,1,2019_Sep_06_1529,MID,3.1.5,59.79377521634407,
SmallPun,3500,0,11,11,11,,100.64799515299819,None,3500,102.68202229099552,None,None,102.68202229099552,None,1.57,12,106.214782610994,None,1,1,106.214782610994,None,You did not lose $0.20!,4.8,5,10,0.42999999999999994,50.0,0.28721645650148275,[1],50.0,9,3,None,0.3021389650020865,,,,0.3021389650020865,046,Scanner,1,2019_Sep_06_1529,MID,3.1.5,59.79377521634407,
SmallPun,1500,0,12,12,12,,108.2481749879953,None,1500,110.28197946599539,None,None,110.28197946599539,None,1.57,13,111.81480818399723,None,None,0,111.81480818399723,None,You lost $0.20!,4.6,5,11,0.42999999999999994,46.15384615384615,0.28721645650148275,"[1, 0]",50.0,9,3,1,0.43774398999783437,,0.007743989997834433,,,046,Scanner,1,2019_Sep_06_1529,MID,3.1.5,59.79377521634407,
LgPun,1500,0,13,13,13,,113.84803826199641,None,1500,115.86898938100057,None,None,115.86898938100057,None,1.57,14,117.41607502799889,None,1,1,117.41607502799889,None,You did not lose $5.00!,4.6,4,12,0.3999999999999999,50.0,0.29003771171535064,[],83.33333333333333,12,3,None,0.3069652429985581,,,Adjusting RT...,0.3069652429985581,046,Scanner,1,2019_Sep_06_1529,MID,3.1.5,59.79377521634407,
SmallReward,2000,0,14,14,14,,119.48279187699518,None,2000,121.50344506499823,None,None,121.50344506499823,None,1.6,15,123.56615027999942,None,1,1,123.56615027999942,None,You won $0.20!,4.8,2,13,0.3999999999999999,53.333333333333336,0.29189407512603793,[1],83.33333333333333,12,3,None,0.30488861900084885,,,,0.30488861900084885,046,Scanner,1,2019_Sep_06_1529,MID,3.1.5,59.79377521634407,
SmallPun,2000,0,15,15,15,,125.59956772099395,None,2000,127.63339221199567,None,None,127.63339221199567,None,1.6,16,129.6660239519988,None,1,1,129.6660239519988,None,You did not lose $0.20!,4.8,5,14,0.3999999999999999,56.25,0.2889095290011028,"[1, 1]",83.33333333333333,12,3,None,0.2650331600016216,,,,0.2650331600016216,046,Scanner,1,2019_Sep_06_1529,MID,3.1.5,59.79377521634407,
LgPun,1500,0,16,16,16,,131.70020892299362,None,1500,133.7337611289986,None,None,133.7337611289986,None,1.6,17,135.26656516799994,None,None,0,135.26656516799994,None,You lost $5.00!,-0.20000000000000018,4,15,0.3799999999999999,52.94117647058824,0.2889095290011028,[],66.66666666666666,15,3,1,0.3828925199949298,,0.0028925199949298985,Adjusting RT...,,046,Scanner,1,2019_Sep_06_1529,MID,3.1.5,59.79377521634407,
LgReward,3500,0,17,17,17,,137.3337619869999,None,3500,139.3677310829953,None,None,139.3677310829953,None,1.62,18,142.9176401339937,None,1,1,142.9176401339937,None,You won $5.00!,4.8,1,16,0.3799999999999999,55.55555555555556,0.29075881370081336,[1],66.66666666666666,15,3,None,0.3074023759982083,,,,0.3074023759982083,046,Scanner,1,2019_Sep_06_1529,MID,3.1.5,59.79377521634407,
Triangle,1500,0,18,18,18,,144.9677092369966,None,1500,147.00144898799772,None,None,147.00144898799772,None,1.62,19,148.5346027619962,None,None,0,148.5346027619962,None,You did not win or lose anything!,4.8,3,16,0.3799999999999999,52.63157894736842,0.29075881370081336,[1],66.66666666666666,15,3,1,0.37763656099821663,,-0.002363439001783263,,,046,Scanner,1,2019_Sep_06_1529,MID,3.1.5,59.79377521634407,
SmallPun,2000,0,19,19,19,,150.58480340700044,None,2000,152.61881668999558,None,None,152.61881668999558,None,1.62,20,154.65113961699535,None,1,1,154.65113961699535,None,You did not lose $0.20!,4.8,5,17,0.3799999999999999,55.00000000000001,0.2878630945461654,"[1, 1]",66.66666666666666,15,3,None,0.2589059029996861,,,,0.2589059029996861,046,Scanner,1,2019_Sep_06_1529,MID,3.1.5,59.79377521634407,
Triangle,2000,0,20,20,20,,156.70126027299557,None,2000,158.72436048699456,None,None,158.72436048699456,None,1.62,21,160.76908987299976,None,1,1,160.76908987299976,None,You did not win or lose anything!,4.8,3,17,0.3799999999999999,57.14285714285714,0.28537227266739745,"[1, 1]",66.66666666666666,15,3,None,0.2579732320009498,,,,0.2579732320009498,046,Scanner,1,2019_Sep_06_1529,MID,3.1.5,59.79377521634407,
SmallReward,1500,0,21,21,21,,162.82691187599994,None,1500,164.85947948599642,None,None,164.85947948599642,None,1.62,22,166.41865641599725,None,1,1,166.41865641599725,None,You won $0.20!,5.0,2,18,0.34999999999999987,59.09090909090909,0.2898259186924686,[],83.33333333333333,18,3,None,0.3432696709933225,,,Adjusting RT...,0.3432696709933225,046,Scanner,1,2019_Sep_06_1529,MID,3.1.5,59.79377521634407,
Triangle,1500,0,22,22,22,,168.45236537199526,None,1500,170.4761020299993,None,None,170.4761020299993,None,1.6500000000000001,23,172.01918287099397,None,1,1,172.01918287099397,None,You did not win or lose anything!,5.0,3,18,0.34999999999999987,60.86956521739131,0.2916827729999828,[],83.33333333333333,18,3,None,0.3158218789976672,,,,0.3158218789976672,046,Scanner,1,2019_Sep_06_1529,MID,3.1.5,59.79377521634407,
SmallReward,3000,0,23,23,23,,174.06140127499384,None,3000,176.09387447499466,None,None,176.09387447499466,None,1.6500000000000001,24,179.14390578899474,None,1,1,179.14390578899474,None,You won $0.20!,5.2,2,19,0.34999999999999987,62.5,0.2883064972663609,[1],83.33333333333333,18,3,None,0.2410386369956541,,,,0.2410386369956541,046,Scanner,1,2019_Sep_06_1529,MID,3.1.5,59.79377521634407,
LgReward,1500,0,24,24,24,,181.2027967279937,None,1500,183.22854956599622,None,None,183.22854956599622,None,1.6500000000000001,25,184.77741410899762,None,None,0,184.77741410899762,None,You did not win $5.00!,5.2,1,20,0.34999999999999987,60.0,0.2883064972663609,"[1, 0]",83.33333333333333,18,3,1,0.37132413599611014,,0.02132413599611027,,,046,Scanner,1,2019_Sep_06_1529,MID,3.1.5,59.79377521634407,
Triangle,2000,0,25,25,25,,186.82055331199808,None,2000,188.84592752399476,None,None,188.84592752399476,None,1.6500000000000001,26,190.8875030929994,None,1,1,190.8875030929994,None,You did not win or lose anything!,5.2,3,20,0.34999999999999987,61.53846153846154,0.28869752749960753,"[1, 0]",83.33333333333333,18,3,None,0.29456298099830747,,,,0.29456298099830747,046,Scanner,1,2019_Sep_06_1529,MID,3.1.5,59.79377521634407,
SmallReward,2000,0,26,26,26,,192.92048700199666,None,2000,194.94576016299834,None,None,194.94576016299834,None,1.6500000000000001,27,196.99589276399638,None,1,1,196.99589276399638,None,You won $0.20!,5.4,2,21,0.31999999999999984,62.96296296296296,0.2879517098819419,[],83.33333333333333,21,3,None,0.2760186279992922,,,Adjusting RT...,0.2760186279992922,046,Scanner,1,2019_Sep_06_1529,MID,3.1.5,59.79377521634407,
SmallPun,1500,0,27,27,27,,199.03747676299827,None,1500,201.06378550199588,None,None,201.06378550199588,None,1.6800000000000002,28,202.60439111799496,None,None,0,202.60439111799496,None,You lost $0.20!,5.2,5,22,0.31999999999999984,60.71428571428571,0.2879517098819419,[0],83.33333333333333,21,3,1,0.3480771709949475,,0.028077170994947664,,,046,Scanner,1,2019_Sep_06_1529,MID,3.1.5,59.79377521634407,
SmallPun,3000,0,28,28,28,,204.6382416849956,None,3000,206.66396094499942,None,None,206.66396094499942,None,1.6800000000000002,29,209.7043670799976,None,None,0,209.7043670799976,None,You lost $0.20!,5.0,5,23,0.31999999999999984,58.620689655172406,0.2879517098819419,"[0, 0]",83.33333333333333,21,3,None,0.3480771709949475,,,,,046,Scanner,1,2019_Sep_06_1529,MID,3.1.5,59.79377521634407,
Triangle,1500,0,29,29,29,,211.72168274099386,None,1500,213.74907104899467,None,None,213.74907104899467,None,1.6800000000000002,30,215.28892703499878,None,None,0,215.28892703499878,None,You did not win or lose anything!,5.0,3,23,0.31999999999999984,56.666666666666664,0.2879517098819419,"[0, 0]",83.33333333333333,21,3,1,0.3493888209998839,,0.029388820999884047,,,046,Scanner,1,2019_Sep_06_1529,MID,3.1.5,59.79377521634407,
SmallReward,1500,0,30,30,30,,217.33381963499414,None,1500,219.3669624319955,None,None,219.3669624319955,None,1.6800000000000002,31,220.91609356399567,None,None,0,220.91609356399567,None,You did not win $0.20!,5.0,2,24,0.3599999999999998,54.83870967741935,0.2879517098819419,[],33.33333333333333,24,3,None,0.3493888209998839,,,Adjusting RT...,,046,Scanner,1,2019_Sep_06_1529,MID,3.1.5,59.79377521634407,
SmallReward,3500,0,31,31,31,,222.96733517699613,None,3500,225.00032043099782,None,None,225.00032043099782,None,1.6400000000000001,32,228.55051834099868,None,1,1,228.55051834099868,None,You won $0.20!,5.2,2,25,0.3599999999999998,56.25,0.2854278001108873,[1],33.33333333333333,24,3,None,0.2425213340029586,,,,0.2425213340029586,046,Scanner,1,2019_Sep_06_1529,MID,3.1.5,59.79377521634407,
LgReward,1500,0,32,32,32,,230.60037709799508,None,1500,232.63454492599703,None,None,232.63454492599703,None,1.6400000000000001,33,234.18414050999854,None,None,0,234.18414050999854,None,You did not win $5.00!,5.2,1,26,0.3599999999999998,54.54545454545454,0.2854278001108873,"[1, 0]",33.33333333333333,24,3,1,0.37848541999788704,,0.01848541999788722,,,046,Scanner,1,2019_Sep_06_1529,MID,3.1.5,59.79377521634407,
LgReward,2500,0,33,33,33,,236.23424391599838,None,2500,238.26908687700052,None,None,238.26908687700052,None,1.6400000000000001,34,240.81841447099578,None,1,1,240.81841447099578,None,You won $5.00!,10.2,1,27,0.3999999999999998,55.88235294117647,0.2825964354208401,[],33.33333333333333,27,3,None,0.2316318709999905,,,Adjusting RT...,0.2316318709999905,046,Scanner,1,2019_Sep_06_1529,MID,3.1.5,59.79377521634407,
SmallPun,2500,0,34,34,34,,242.87397142599366,None,2500,244.90278319799836,None,None,244.90278319799836,None,1.6,35,247.43676192400017,None,1,1,247.43676192400017,None,You did not lose $0.20!,10.2,5,28,0.3999999999999998,57.14285714285714,0.2830805574500118,[1],33.33333333333333,27,3,None,0.29227887600427493,,,,0.29227887600427493,046,Scanner,1,2019_Sep_06_1529,MID,3.1.5,59.79377521634407,
SmallPun,4000,0,35,35,35,,249.4737687819943,None,4000,251.50357400399662,None,None,251.50357400399662,None,1.6,36,255.53716760299721,None,1,1,255.53716760299721,None,You did not lose $0.20!,10.2,5,29,0.3999999999999998,58.333333333333336,0.2818808086189425,"[1, 1]",33.33333333333333,27,3,None,0.2578858319975552,,,,0.2578858319975552,046,Scanner,1,2019_Sep_06_1529,MID,3.1.5,59.79377521634407,
SmallReward,1500,0,36,36,36,,257.5752653229938,None,1500,259.6045599439967,None,None,259.6045599439967,None,1.6,37,261.1544122409978,None,None,0,261.1544122409978,None,You did not win $0.20!,10.2,2,30,0.3799999999999998,56.75675675675676,0.2818808086189425,[],66.66666666666666,30,3,1,0.39477677899674724,,0.014776778996747453,Adjusting RT...,,046,Scanner,1,2019_Sep_06_1529,MID,3.1.5,59.79377521634407,
SmallPun,1500,0,37,37,37,,263.18802866599435,None,1500,265.22205399599625,None,None,265.22205399599625,None,1.62,38,266.7554474219942,None,None,0,266.7554474219942,None,You lost $0.20!,10.0,5,31,0.3799999999999998,55.26315789473685,0.2818808086189425,[0],66.66666666666666,30,3,1,0.4431271009988266,,0.06312710099882679,,,046,Scanner,1,2019_Sep_06_1529,MID,3.1.5,59.79377521634407,
LgPun,1500,0,38,38,38,,268.7921928549986,None,1500,270.8225641099998,None,None,270.8225641099998,None,1.62,39,272.3565906099975,None,None,0,272.3565906099975,None,You lost $5.00!,5.0,4,32,0.3799999999999998,53.84615384615385,0.2818808086189425,"[0, 0]",66.66666666666666,30,3,1,0.394188733002811,,0.014188733002811205,,,046,Scanner,1,2019_Sep_06_1529,MID,3.1.5,59.79377521634407,
Triangle,1500,0,39,39,39,,274.389888644997,None,1500,276.42390276600054,None,None,276.42390276600054,None,1.62,40,277.95641933699517,None,1,1,277.95641933699517,None,You did not win or lose anything!,5.0,3,32,0.3799999999999998,55.00000000000001,0.28441439845449745,"[0, 0]",66.66666666666666,30,3,None,0.3376197850011522,,,,0.3376197850011522,046,Scanner,1,2019_Sep_06_1529,MID,3.1.5,59.79377521634407,
Triangle,2500,0,40,40,40,,279.9929171049953,None,2500,282.02422717499576,None,1,282.02422717499576,None,1.62,41,284.5578084189983,None,None,0,284.5578084189983,None,You did not win or lose anything!,5.0,3,32,0.3799999999999998,53.65853658536586,0.28441439845449745,"[0, 0]",66.66666666666666,30,3,None,0.3376197850011522,0.4797028019966092,,,,046,Scanner,1,2019_Sep_06_1529,MID,3.1.5,59.79377521634407,
LgPun,1500,0,41,41,41,,286.610061112995,None,1500,288.64184285399824,None,None,288.64184285399824,None,1.62,42,290.1749412039935,None,None,0,290.1749412039935,None,You lost $5.00!,0.0,4,33,0.41999999999999976,52.38095238095239,0.28441439845449745,[],33.33333333333333,33,3,None,0.3376197850011522,,,Adjusting RT...,,046,Scanner,1,2019_Sep_06_1529,MID,3.1.5,59.79377521634407,
LgPun,4000,0,42,42,42,,292.20980266900006,None,4000,294.24254165999446,None,None,294.24254165999446,None,1.5800000000000003,43,298.27638001000014,None,1,1,298.27638001000014,None,You did not lose $5.00!,0.0,4,34,0.41999999999999976,53.48837209302325,0.28346883056529687,[1],33.33333333333333,33,3,None,0.26266633700288367,,,,0.26266633700288367,046,Scanner,1,2019_Sep_06_1529,MID,3.1.5,59.79377521634407,
Triangle,3500,0,43,43,43,,300.3109921139985,None,3500,302.3441525229937,None,None,302.3441525229937,None,1.5800000000000003,44,305.8767205330005,None,None,0,305.8767205330005,None,You did not win or lose anything!,0.0,3,34,0.41999999999999976,52.27272727272727,0.28346883056529687,[1],33.33333333333333,33,3,1,0.4381544760052927,,0.018154476005292963,,,046,Scanner,1,2019_Sep_06_1529,MID,3.1.5,59.79377521634407,
SmallReward,1500,0,44,44,44,,307.94389326799865,None,1500,309.9609838079996,None,None,309.9609838079996,None,1.5800000000000003,45,311.511776937994,None,None,0,311.511776937994,None,You did not win $0.20!,0.0,2,35,0.41999999999999976,51.11111111111111,0.28346883056529687,"[1, 0]",33.33333333333333,33,3,1,0.40976670099364104,,-0.01023329900635872,,,046,Scanner,1,2019_Sep_06_1529,MID,3.1.5,59.79377521634407,
LgReward,2000,0,45,45,45,,313.5614851799983,None,2000,315.59544804199686,None,None,315.59544804199686,None,1.5800000000000003,46,317.64558741200017,None,1,1,317.64558741200017,None,You won $5.00!,5.0,1,36,0.45999999999999974,52.17391304347826,0.28434315745865507,[],33.33333333333333,36,3,None,0.3044526760058943,,,Adjusting RT...,0.3044526760058943,046,Scanner,1,2019_Sep_06_1529,MID,3.1.5,59.79377521634407,
LgReward,1500,0,46,46,46,,319.69552804999694,None,1500,321.72921093199693,None,None,321.72921093199693,None,1.5400000000000003,47,323.27888595200056,None,None,0,323.27888595200056,None,You did not win $5.00!,5.0,1,37,0.45999999999999974,51.06382978723404,0.28434315745865507,[0],33.33333333333333,36,3,1,0.4658747990042318,,0.005874799004232045,,,046,Scanner,1,2019_Sep_06_1529,MID,3.1.5,59.79377521634407,
LgPun,3000,0,47,47,47,,325.3128276789939,None,3000,327.34683781999775,None,None,327.34683781999775,None,1.5400000000000003,48,330.3788674440002,None,1,1,330.3788674440002,None,You did not lose $5.00!,5.0,4,38,0.45999999999999974,52.083333333333336,0.2841370315200766,"[0, 1]",33.33333333333333,36,3,None,0.2791900089941919,,,,0.2791900089941919,046,Scanner,1,2019_Sep_06_1529,MID,3.1.5,59.79377521634407,
LgPun,3500,0,48,48,48,,332.42993235699396,None,3500,334.4633014899955,None,None,334.4633014899955,None,1.5400000000000003,49,337.9965879049996,None,1,1,337.9965879049996,None,You did not lose $5.00!,5.0,4,39,0.4399999999999997,53.06122448979592,0.28495689603844837,[],66.66666666666666,39,3,None,0.3054535089977435,,,Adjusting RT...,0.3054535089977435,046,Scanner,1,2019_Sep_06_1529,MID,3.1.5,59.79377521634407,
LgPun,2500,0,49,49,49,,340.0298278839982,None,2500,342.06424031399365,None,None,342.06424031399365,None,1.5600000000000003,50,344.59667934999743,None,1,1,344.59667934999743,None,You did not lose $5.00!,5.0,4,40,0.4399999999999997,54.0,0.28660293048165775,[1],66.66666666666666,39,3,None,0.3293998260051012,,,,0.3293998260051012,046,Scanner,1,2019_Sep_06_1529,MID,3.1.5,59.79377521634407,
,,,,,,,,,,,,,,,,,,,,,,,,,,,,,,,,,,,,,,,,046,Scanner,1,2019_Sep_06_1529,MID,3.1.5,59.79377521634407,
