Condition,FixationDur,trials.thisRepN,trials.thisTrialN,trials.thisN,trials.thisIndex,TrialOrder,cueImage.started,cueImage.stopped,FixationDur,fixation.started,fixation.stopped,fixationResp.keys,fixationResp.started,fixationResp.stopped,feedbackDur,Trial counter,Target.started,Target.stopped,probeResp.keys,probeResp.corr,probeResp.started,probeResp.stopped,msg,TrackEarnings,TrialType,NonNeutralTrialsNum,probeDur,percentacc_total,meanrt,UserAcc,Acc,AdjTrial,AdjTrialInc,feedback_resp.keys,feedback_resp.rt,OverallRT,AdjRTmsg,probeResp.rt,participant,prac_or_scan,run,date,expName,psychopyVersion,frameRate,
LgPun,1500,0,0,0,0,TimeVersion13.csv,23.790262640002766,None,1500,25.80729872500524,None,None,25.80729872500524,None,1.73,1,27.342595669004368,None,None,0,27.342595669004368,None,You lost $5.00!,-5,4,1,0.2699999999999999,0.0,nan,[0],0,0,3,1,-0.003281188000983093,0.2667188119990168,,,046,Scanner,2,2019_Sep_06_1535,MID,3.1.5,60.03888093804232,
LgReward,2000,0,1,1,1,,29.423338596003305,None,2000,31.45799393600464,None,None,31.45799393600464,None,1.73,2,33.50696539900673,None,None,0,33.50696539900673,None,You did not win $5.00!,-5,1,2,0.2699999999999999,0.0,nan,"[0, 0]",0,0,3,1,0.027614605001872405,0.2976146050018723,,,046,Scanner,2,2019_Sep_06_1535,MID,3.1.5,60.03888093804232,
Triangle,4000,0,2,2,2,,35.54072759700648,None,4000,37.57354889000271,None,None,37.57354889000271,None,1.73,3,41.60812735600484,None,None,0,41.60812735600484,None,You did not win or lose anything!,-5,3,2,0.2699999999999999,0.0,nan,"[0, 0]",0,0,3,1,0.02434249899670249,0.2943424989967024,,,046,Scanner,2,2019_Sep_06_1535,MID,3.1.5,60.03888093804232,
LgPun,1500,0,3,3,3,,43.641751947005105,None,1500,45.674861886000144,None,None,45.674861886000144,None,1.73,4,47.208115601002646,None,None,0,47.208115601002646,None,You lost $5.00!,-10,4,3,0.3399999999999999,0.0,nan,[],0.0,3,3,1,0.11120790700078942,0.45120790700078933,Adjusting RT...,,046,Scanner,2,2019_Sep_06_1535,MID,3.1.5,60.03888093804232,
LgReward,1500,0,4,4,4,,49.25836715000332,None,1500,51.28308413600462,None,None,51.28308413600462,None,1.6600000000000001,5,52.84149525900284,None,1,1,52.84149525900284,None,You won $5.00!,-5,1,4,0.3399999999999999,20.0,0.28509628300525947,[1],0.0,3,3,None,,0.28509628300525947,,0.28509628300525947,046,Scanner,2,2019_Sep_06_1535,MID,3.1.5,60.03888093804232,
LgPun,2000,0,5,5,5,,54.891288673003146,None,2000,56.916958974004956,None,None,56.916958974004956,None,1.6600000000000001,6,58.9591275250059,None,None,0,58.9591275250059,None,You lost $5.00!,-10,4,5,0.3399999999999999,16.666666666666664,0.28509628300525947,"[1, 0]",0.0,3,3,1,0.008697704004589468,0.3486977040045894,,,046,Scanner,2,2019_Sep_06_1535,MID,3.1.5,60.03888093804232,
Triangle,3000,0,6,6,6,,60.99305500500486,None,3000,63.02620408200164,None,None,63.02620408200164,None,1.6600000000000001,7,66.05874583000696,None,1,1,66.05874583000696,None,You did not win or lose anything!,-10,3,5,0.3399999999999999,28.57142857142857,0.27502967600230477,"[1, 0]",0.0,3,3,None,,0.26496306899935007,,0.26496306899935007,046,Scanner,2,2019_Sep_06_1535,MID,3.1.5,60.03888093804232,
SmallReward,2000,0,7,7,7,,68.11891443000059,None,2000,70.15144924800552,None,None,70.15144924800552,None,1.6600000000000001,8,72.19327054400492,None,1,1,72.19327054400492,None,You won $0.20!,-9.8,2,6,0.3799999999999999,37.5,0.2808352850018612,[],33.33333333333333,6,3,None,,0.2924465030009742,Adjusting RT...,0.2924465030009742,046,Scanner,2,2019_Sep_06_1535,MID,3.1.5,60.03888093804232,
Triangle,2000,0,8,8,8,,74.24323747800372,None,2000,76.27771916600614,None,None,76.27771916600614,None,1.62,9,78.31053598400467,None,1,1,78.31053598400467,None,You did not win or lose anything!,-9.8,3,6,0.3799999999999999,44.44444444444444,0.2836697445018217,[],33.33333333333333,6,3,None,,0.29217312300170306,,0.29217312300170306,046,Scanner,2,2019_Sep_06_1535,MID,3.1.5,60.03888093804232,
SmallReward,2500,0,9,9,9,,80.37676802900387,None,2500,82.40286532500613,None,None,82.40286532500613,None,1.62,10,84.95360732900008,None,None,0,84.95360732900008,None,You did not win $0.20!,-9.8,2,7,0.3799999999999999,40.0,0.2836697445018217,[0],33.33333333333333,6,3,1,0.0032316360011463985,0.3832316360011463,,,046,Scanner,2,2019_Sep_06_1535,MID,3.1.5,60.03888093804232,
Triangle,3500,0,10,10,10,,87.01125058100297,None,3500,89.03838691200508,None,None,89.03838691200508,None,1.62,11,92.57819798300625,None,1,1,92.57819798300625,None,You did not win or lose anything!,-9.8,3,7,0.3799999999999999,45.45454545454545,0.2846343794008135,[0],33.33333333333333,6,3,None,,0.28849291899678065,,0.28849291899678065,046,Scanner,2,2019_Sep_06_1535,MID,3.1.5,60.03888093804232,
SmallReward,4000,0,11,11,11,,94.63854543000343,None,4000,96.65513397900213,None,None,96.65513397900213,None,1.62,12,100.70584565200261,None,1,1,100.70584565200261,None,You won $0.20!,-9.600000000000001,2,8,0.3799999999999999,50.0,0.2823273590001918,"[0, 1]",33.33333333333333,6,3,None,,0.2707922569970833,,0.2707922569970833,046,Scanner,2,2019_Sep_06_1535,MID,3.1.5,60.03888093804232,
SmallPun,4000,0,12,12,12,,102.74600667400227,None,4000,104.77285982900503,None,None,104.77285982900503,None,1.62,13,108.80696437500592,None,None,0,108.80696437500592,None,You lost $0.20!,-9.8,5,9,0.3999999999999999,46.15384615384615,0.2823273590001918,[],49.99999999999999,9,3,1,-0.004387490000226535,0.3956125099997734,Adjusting RT...,,046,Scanner,2,2019_Sep_06_1535,MID,3.1.5,60.03888093804232,
SmallReward,1500,0,13,13,13,,110.8618122340049,None,1500,112.89063217900548,None,None,112.89063217900548,None,1.6,14,114.44209382200643,None,None,0,114.44209382200643,None,You did not win $0.20!,-9.8,2,10,0.3999999999999999,42.857142857142854,0.2823273590001918,[0],49.99999999999999,9,3,1,0.0086028890000307,0.4086028890000306,,,046,Scanner,2,2019_Sep_06_1535,MID,3.1.5,60.03888093804232,
Triangle,1500,0,14,14,14,,116.47963140100182,None,1500,118.50797736300592,None,None,118.50797736300592,None,1.6,15,120.04090443700261,None,None,0,120.04090443700261,None,You did not win or lose anything!,-9.8,3,10,0.3999999999999999,40.0,0.2823273590001918,[0],49.99999999999999,9,3,1,0.0771793460007757,0.4771793460007756,,,046,Scanner,2,2019_Sep_06_1535,MID,3.1.5,60.03888093804232,
LgPun,1500,0,15,15,15,,122.0804469020004,None,1500,124.10880221800471,None,None,124.10880221800471,None,1.6,16,125.6421016220047,None,None,0,125.6421016220047,None,You lost $5.00!,-14.8,4,11,0.3999999999999999,37.5,0.2823273590001918,"[0, 0]",49.99999999999999,9,3,1,0.0009450380021007732,0.4009450380021007,,,046,Scanner,2,2019_Sep_06_1535,MID,3.1.5,60.03888093804232,
SmallPun,2000,0,16,16,16,,127.6797662060053,None,2000,129.7094703890034,None,None,129.7094703890034,None,1.6,17,131.7430644670021,None,1,1,131.7430644670021,None,You did not lose $0.20!,-14.8,5,12,0.4399999999999999,41.17647058823529,0.28979667257122593,[],33.33333333333333,12,3,None,,0.33461255399743095,Adjusting RT...,0.33461255399743095,046,Scanner,2,2019_Sep_06_1535,MID,3.1.5,60.03888093804232,
SmallReward,3000,0,17,17,17,,133.79266495000047,None,3000,135.82702743600385,None,None,135.82702743600385,None,1.56,18,138.8768161150001,None,1,1,138.8768161150001,None,You won $0.20!,-14.600000000000001,2,13,0.4399999999999999,44.44444444444444,0.2870417787489714,[1],33.33333333333333,12,3,None,,0.2677575219931896,,0.2677575219931896,046,Scanner,2,2019_Sep_06_1535,MID,3.1.5,60.03888093804232,
LgPun,3500,0,18,18,18,,140.91448378900532,None,3500,142.94449321100547,None,None,142.94449321100547,None,1.56,19,146.47811709300004,None,1,1,146.47811709300004,None,You did not lose $5.00!,-14.600000000000001,4,14,0.4399999999999999,47.368421052631575,0.28642629033210043,"[1, 1]",33.33333333333333,12,3,None,,0.28150238299713237,,0.28150238299713237,046,Scanner,2,2019_Sep_06_1535,MID,3.1.5,60.03888093804232,
Triangle,1500,0,19,19,19,,148.52833444300632,None,1500,150.56258746100502,None,None,150.56258746100502,None,1.56,20,152.09562976000598,None,None,0,152.09562976000598,None,You did not win or lose anything!,-14.600000000000001,3,14,0.4399999999999999,45.0,0.28642629033210043,"[1, 1]",33.33333333333333,12,3,1,0.04260516099748202,0.4826051609974819,,,046,Scanner,2,2019_Sep_06_1535,MID,3.1.5,60.03888093804232,
LgPun,1500,0,20,20,20,,154.13188843399985,None,1500,156.16269867200026,None,None,156.16269867200026,None,1.56,21,157.69647334800538,None,1,1,157.69647334800538,None,You did not lose $5.00!,-14.600000000000001,4,15,0.4199999999999999,47.61904761904761,0.2869052157991973,[],66.66666666666666,15,3,None,,0.29121554500306956,Adjusting RT...,0.29121554500306956,046,Scanner,2,2019_Sep_06_1535,MID,3.1.5,60.03888093804232,
SmallPun,3500,0,21,21,21,,159.73278119000315,None,3500,161.76391688100557,None,None,161.76391688100557,None,1.58,22,165.29700873900583,None,1,1,165.29700873900583,None,You did not lose $0.20!,-14.600000000000001,5,16,0.4199999999999999,50.0,0.28378524572657293,[1],66.66666666666666,15,3,None,,0.25258554500032915,,0.25258554500032915,046,Scanner,2,2019_Sep_06_1535,MID,3.1.5,60.03888093804232,
SmallReward,1500,0,22,22,22,,167.34827034400223,None,1500,169.38063013300416,None,None,169.38063013300416,None,1.58,23,170.93174603800435,None,None,0,170.93174603800435,None,You did not win $0.20!,-14.600000000000001,2,17,0.4199999999999999,47.82608695652174,0.28378524572657293,"[1, 0]",66.66666666666666,15,3,1,0.3127847239957191,0.732784723995719,,,046,Scanner,2,2019_Sep_06_1535,MID,3.1.5,60.03888093804232,
SmallPun,2500,0,23,23,23,,172.96621174900065,None,2500,174.998738950002,None,None,174.998738950002,None,1.58,24,177.53196857400326,None,1,1,177.53196857400326,None,You did not lose $0.20!,-14.600000000000001,5,18,0.3899999999999999,50.0,0.28444688124970224,[],83.33333333333333,18,3,None,,0.29172487200412434,Adjusting RT...,0.29172487200412434,046,Scanner,2,2019_Sep_06_1535,MID,3.1.5,60.03888093804232,
SmallPun,1500,0,24,24,24,,179.56654752900067,None,1500,181.59967065600358,None,None,181.59967065600358,None,1.61,25,183.13272407200566,None,1,1,183.13272407200566,None,You did not lose $0.20!,-14.600000000000001,5,19,0.3899999999999999,52.0,0.28502573438443224,[1],83.33333333333333,18,3,None,,0.2919719720011926,,0.2919719720011926,046,Scanner,2,2019_Sep_06_1535,MID,3.1.5,60.03888093804232,
LgPun,2500,0,25,25,25,,185.16786427600164,None,2500,187.19988942300552,None,None,187.19988942300552,None,1.61,26,189.7334230780034,None,1,1,189.7334230780034,None,You did not lose $5.00!,-14.600000000000001,4,20,0.3899999999999999,53.84615384615385,0.28675630814229536,"[1, 1]",83.33333333333333,18,3,None,,0.3092537669945159,,0.3092537669945159,046,Scanner,2,2019_Sep_06_1535,MID,3.1.5,60.03888093804232,
SmallReward,1500,0,26,26,26,,191.7835827950039,None,1500,193.81850952700188,None,None,193.81850952700188,None,1.61,27,195.36748026100395,None,None,0,195.36748026100395,None,You did not win $0.20!,-14.600000000000001,2,21,0.3699999999999999,51.85185185185185,0.28675630814229536,[],66.66666666666666,21,3,1,0.024835215997882187,0.39483521599788207,Adjusting RT...,,046,Scanner,2,2019_Sep_06_1535,MID,3.1.5,60.03888093804232,
LgReward,1500,0,27,27,27,,197.4178252270067,None,1500,199.45175906800432,None,None,199.45175906800432,None,1.6300000000000001,28,201.00181307300227,None,1,1,201.00181307300227,None,You won $5.00!,-9.600000000000001,1,22,0.3699999999999999,53.57142857142857,0.28843143213258976,[1],66.66666666666666,21,3,None,,0.31188316799671156,,0.31188316799671156,046,Scanner,2,2019_Sep_06_1535,MID,3.1.5,60.03888093804232,
LgReward,2500,0,28,28,28,,203.0510485610066,None,2500,205.0859481390071,None,None,205.0859481390071,None,1.6300000000000001,29,207.63558472400473,None,1,1,207.63558472400473,None,You won $5.00!,-4.600000000000001,1,23,0.3699999999999999,55.172413793103445,0.2887160316245172,"[1, 1]",66.66666666666666,21,3,None,,0.2929850240034284,,0.2929850240034284,046,Scanner,2,2019_Sep_06_1535,MID,3.1.5,60.03888093804232,
SmallPun,2000,0,29,29,29,,209.66972520400304,None,2000,211.70260473700182,None,None,211.70260473700182,None,1.6300000000000001,30,213.7357688100019,None,None,0,213.7357688100019,None,You lost $0.20!,-4.800000000000002,5,24,0.34999999999999987,53.333333333333336,0.2887160316245172,[],66.66666666666666,24,3,1,-0.0015588869937346317,0.34844111300626524,Adjusting RT...,,046,Scanner,2,2019_Sep_06_1535,MID,3.1.5,60.03888093804232,
SmallReward,1500,0,30,30,30,,215.78609475800477,None,1500,217.81961501000478,None,None,217.81961501000478,None,1.6500000000000001,31,219.36902224600635,None,None,0,219.36902224600635,None,You did not win $0.20!,-4.800000000000002,2,25,0.34999999999999987,51.61290322580645,0.2887160316245172,[0],66.66666666666666,24,3,1,0.007264223000674974,0.35726422300067484,,,046,Scanner,2,2019_Sep_06_1535,MID,3.1.5,60.03888093804232,
SmallPun,1500,0,31,31,31,,221.40311263900367,None,1500,223.43639724600507,None,None,223.43639724600507,None,1.6500000000000001,32,224.9697108420005,None,None,0,224.9697108420005,None,You lost $0.20!,-5.000000000000002,5,26,0.34999999999999987,50.0,0.2887160316245172,"[0, 0]",66.66666666666666,24,3,None,,0.35726422300067484,,,046,Scanner,2,2019_Sep_06_1535,MID,3.1.5,60.03888093804232,
Triangle,2500,0,32,32,32,,227.00366361700435,None,2500,229.03714844700153,None,None,229.03714844700153,None,1.6500000000000001,33,231.56962687000487,None,None,0,231.56962687000487,None,You did not win or lose anything!,-5.000000000000002,3,26,0.34999999999999987,48.484848484848484,0.2887160316245172,"[0, 0]",66.66666666666666,24,3,None,,0.35726422300067484,,,046,Scanner,2,2019_Sep_06_1535,MID,3.1.5,60.03888093804232,
LgReward,1500,0,33,33,33,,233.62041251000483,None,1500,235.6545095820038,None,None,235.6545095820038,None,1.6500000000000001,34,237.20402530600404,None,None,0,237.20402530600404,None,You did not win $5.00!,-5.000000000000002,1,27,0.38999999999999985,47.05882352941176,0.2887160316245172,[],33.33333333333333,27,3,1,0.014007099001901224,0.40400709900190107,Adjusting RT...,,046,Scanner,2,2019_Sep_06_1535,MID,3.1.5,60.03888093804232,
LgPun,2000,0,34,34,34,,239.23804722700152,None,2000,241.27176354200492,None,None,241.27176354200492,None,1.61,35,243.30386403700686,None,1,1,243.30386403700686,None,You did not lose $5.00!,-5.000000000000002,4,28,0.38999999999999985,48.57142857142857,0.2907813289403909,[1],33.33333333333333,27,3,None,,0.32382608599436935,,0.32382608599436935,046,Scanner,2,2019_Sep_06_1535,MID,3.1.5,60.03888093804232,
LgReward,3500,0,35,35,35,,245.33770963400457,None,3500,247.3716453060042,None,None,247.3716453060042,None,1.61,36,250.92178770500323,None,1,1,250.92178770500323,None,You won $5.00!,-1.7763568394002505e-15,1,29,0.38999999999999985,50.0,0.2915657469990644,"[1, 1]",33.33333333333333,27,3,None,,0.30490085399651434,,0.30490085399651434,046,Scanner,2,2019_Sep_06_1535,MID,3.1.5,60.03888093804232,
LgPun,3000,0,36,36,36,,252.955371516,None,3000,254.9890131800057,None,None,254.9890131800057,None,1.61,37,258.0215207230067,None,1,1,258.0215207230067,None,You did not lose $5.00!,-1.7763568394002505e-15,4,30,0.40999999999999986,51.35135135135135,0.2918558995780155,[],50.0,30,3,None,,0.2970786459991359,Adjusting RT...,0.2970786459991359,046,Scanner,2,2019_Sep_06_1535,MID,3.1.5,60.03888093804232,
SmallReward,2000,0,37,37,37,,260.08894999900076,None,2000,262.1231887620015,None,None,262.1231887620015,None,1.59,38,264.17273455100076,None,1,1,264.17273455100076,None,You won $0.20!,0.19999999999999823,2,31,0.40999999999999986,52.63157894736842,0.2929133031491801,[1],50.0,30,3,None,,0.31300397100130795,,0.31300397100130795,046,Scanner,2,2019_Sep_06_1535,MID,3.1.5,60.03888093804232,
SmallPun,1500,0,38,38,38,,266.22287291600514,None,1500,268.2439348290063,None,None,268.2439348290063,None,1.59,39,269.7889534040005,None,None,0,269.7889534040005,None,You lost $0.20!,-1.7763568394002505e-15,5,32,0.40999999999999986,51.28205128205128,0.2929133031491801,"[1, 0]",50.0,30,3,None,,0.31300397100130795,,,046,Scanner,2,2019_Sep_06_1535,MID,3.1.5,60.03888093804232,
LgReward,4000,0,39,39,39,,271.85662554900046,None,4000,273.8898145840067,None,None,273.8898145840067,None,1.59,40,277.9403862780018,None,1,1,277.9403862780018,None,You won $5.00!,4.999999999999998,1,33,0.3799999999999999,52.5,0.29202730338008787,[],83.33333333333333,33,3,None,,0.2743073079982423,Adjusting RT...,0.2743073079982423,046,Scanner,2,2019_Sep_06_1535,MID,3.1.5,60.03888093804232,
Triangle,1500,0,40,40,40,,279.97366255800443,None,1500,282.00762782400125,None,None,282.00762782400125,None,1.62,41,283.540155693001,None,None,0,283.540155693001,None,You did not win or lose anything!,4.999999999999998,3,33,0.3799999999999999,51.21951219512195,0.29202730338008787,[],83.33333333333333,33,3,None,,0.2743073079982423,,,046,Scanner,2,2019_Sep_06_1535,MID,3.1.5,60.03888093804232,
LgReward,2000,0,41,41,41,,285.62383297100314,None,2000,287.6414182300068,None,None,287.6414182300068,None,1.62,42,289.6910492390016,None,1,1,289.6910492390016,None,You won $5.00!,9.999999999999998,1,34,0.3799999999999999,52.38095238095239,0.2940521746353294,[1],83.33333333333333,33,3,None,,0.3365744709954015,,0.3365744709954015,046,Scanner,2,2019_Sep_06_1535,MID,3.1.5,60.03888093804232,
SmallPun,3000,0,42,42,42,,291.7410284830039,None,3000,293.7638417640046,None,None,293.7638417640046,None,1.62,43,296.807660036,None,None,0,296.807660036,None,You lost $0.20!,9.799999999999999,5,35,0.3799999999999999,51.162790697674424,0.2940521746353294,"[1, 0]",83.33333333333333,33,3,1,0.018451757001457736,0.39845175700145763,,,046,Scanner,2,2019_Sep_06_1535,MID,3.1.5,60.03888093804232,
Triangle,1500,0,43,43,43,,298.8575797720041,None,1500,300.88155350099987,None,None,300.88155350099987,None,1.62,44,302.42530707400147,None,1,1,302.42530707400147,None,You did not win or lose anything!,9.799999999999999,3,35,0.3799999999999999,52.27272727272727,0.29541558543385926,"[1, 0]",83.33333333333333,33,3,None,,0.3254106230015168,,0.3254106230015168,046,Scanner,2,2019_Sep_06_1535,MID,3.1.5,60.03888093804232,
SmallPun,1500,0,44,44,44,,304.475318239005,None,1500,306.4993245190053,None,None,306.4993245190053,None,1.62,45,308.0423353780061,None,1,1,308.0423353780061,None,You did not lose $0.20!,9.799999999999999,5,36,0.3599999999999999,53.333333333333336,0.29733062091600004,[],66.66666666666666,36,3,None,,0.3413764370052377,Adjusting RT...,0.3413764370052377,046,Scanner,2,2019_Sep_06_1535,MID,3.1.5,60.03888093804232,
LgPun,4000,0,45,45,45,,310.0758167620006,None,4000,312.0996857630016,None,None,312.0996857630016,None,1.6400000000000001,46,316.1423552910055,None,1,1,316.1423552910055,None,You did not lose $5.00!,9.799999999999999,4,37,0.3599999999999999,54.347826086956516,0.2975265263192705,[1],66.66666666666666,36,3,None,,0.30222825599776115,,0.30222825599776115,046,Scanner,2,2019_Sep_06_1535,MID,3.1.5,60.03888093804232,
Triangle,2000,0,46,46,46,,318.1924911080059,None,2000,320.2181741200038,None,None,320.2181741200038,None,1.6400000000000001,47,322.2591324080058,None,None,0,322.2591324080058,None,You did not win or lose anything!,9.799999999999999,3,37,0.3599999999999999,53.191489361702125,0.2975265263192705,[1],66.66666666666666,36,3,None,,0.30222825599776115,,,046,Scanner,2,2019_Sep_06_1535,MID,3.1.5,60.03888093804232,
LgReward,3000,0,47,47,47,,324.32800779399986,None,3000,326.3513420090021,None,None,326.3513420090021,None,1.6400000000000001,48,329.40128425200237,None,None,0,329.40128425200237,None,You did not win $5.00!,9.799999999999999,1,38,0.3599999999999999,52.083333333333336,0.2975265263192705,"[1, 0]",66.66666666666666,36,3,None,,0.30222825599776115,,,046,Scanner,2,2019_Sep_06_1535,MID,3.1.5,60.03888093804232,
LgReward,1500,0,48,48,48,,331.4779516000053,None,1500,333.48552459600614,None,None,333.48552459600614,None,1.6400000000000001,49,335.0363159520057,None,1,1,335.0363159520057,None,You won $5.00!,14.799999999999999,1,39,0.33999999999999986,53.06122448979592,0.2978284130376079,[],66.66666666666666,39,3,None,,0.3053755809960421,Adjusting RT...,0.3053755809960421,046,Scanner,2,2019_Sep_06_1535,MID,3.1.5,60.03888093804232,
SmallReward,3500,0,49,49,49,,337.1190976480066,None,3500,339.13645985300536,None,None,339.13645985300536,None,1.6600000000000001,50,342.68729167900165,None,1,1,342.68729167900165,None,You won $0.20!,14.999999999999998,2,40,0.33999999999999986,54.0,0.296701256777009,[1],66.66666666666666,39,3,None,,0.26739519400143763,,0.26739519400143763,046,Scanner,2,2019_Sep_06_1535,MID,3.1.5,60.03888093804232,
,,,,,,,,,,,,,,,,,,,,,,,,,,,,,,,,,,,,,,,046,Scanner,2,2019_Sep_06_1535,MID,3.1.5,60.03888093804232,
