Condition,FixationDur,trials.thisRepN,trials.thisTrialN,trials.thisN,trials.thisIndex,TrialOrder,cueImage.started,cueImage.stopped,FixationDur.1,fixation.started,fixation.stopped,fixationResp.keys,fixationResp.started,fixationResp.stopped,feedbackDur,Trial counter,Target.started,Target.stopped,probeResp.keys,probeResp.corr,probeResp.started,probeResp.stopped,msg,TrackEarnings,TrialType,NonNeutralTrialsNum,probeDur,percentacc_total,meanrt,UserAcc,Acc,AdjTrial,AdjTrialInc,feedback_resp.keys,feedback_resp.rt,OverallRT,probeResp.rt,AdjRTmsg,fixationResp.rt,participant,prac_or_scan,run,date,expName,psychopyVersion,frameRate,Unnamed: 47,Unnamed: 46,Unnamed: 44,Unnamed: 45,Unnamed: 7,Unnamed: 43
LgReward,1500.0,0.0,0.0,0.0,0.0,TimeVersion3.csv,36.73439798199979,None,1500.0,38.752107197000434,None,None,38.752107197000434,None,1.64,1.0,40.302339345998924,None,None,0.0,40.302339345998924,None,You did not win $5.00!,0.0,1.0,1.0,0.36,0.0,,[0],0.0,0.0,3.0,1,-0.008065310998063069,0.3519346890019369,,,,1,Scanner,1,2019_Sep_06_1102,MID,3.1.5,60.30067423658321,,,,,,
Triangle,2500.0,0.0,1.0,1.0,1.0,,42.35269726000115,None,2500.0,44.386297954999456,None,None,44.386297954999456,None,1.64,2.0,46.91878677000204,None,1,1.0,46.91878677000204,None,You did not win or lose anything!,0.0,3.0,1.0,0.36,50.0,0.2855443239968736,[0],0.0,0.0,3.0,None,,0.2855443239968736,0.2855443239968736,,,1,Scanner,1,2019_Sep_06_1102,MID,3.1.5,60.30067423658321,,,,,,
SmallPun,1500.0,0.0,2.0,2.0,2.0,,48.96934219700052,None,1500.0,51.003003144000104,None,None,51.003003144000104,None,1.64,3.0,52.5364748710017,None,1,1.0,52.5364748710017,None,You did not lose $0.20!,0.0,5.0,2.0,0.36,66.66666666666666,0.275207048498487,"[0, 1]",0.0,0.0,3.0,None,,0.2648697730001004,0.2648697730001004,,,1,Scanner,1,2019_Sep_06_1102,MID,3.1.5,60.30067423658321,,,,,,
LgPun,2500.0,0.0,3.0,3.0,3.0,,54.58624640400012,None,2500.0,56.620295619999524,None,None,56.620295619999524,None,1.64,4.0,59.15334821899887,None,1,1.0,59.15334821899887,None,You did not lose $5.00!,0.0,4.0,3.0,0.34,75.0,0.26784337599868496,[],66.66666666666666,3.0,3.0,None,,0.25311603099908103,0.25311603099908103,Adjusting RT...,,1,Scanner,1,2019_Sep_06_1102,MID,3.1.5,60.30067423658321,,,,,,
Triangle,1500.0,0.0,4.0,4.0,4.0,,61.20369520199893,None,1500.0,63.2372557910021,None,None,63.2372557910021,None,1.66,5.0,64.76994562600157,None,1,1.0,64.76994562600157,None,You did not win or lose anything!,0.0,3.0,3.0,0.34,80.0,0.2792590372491759,[],66.66666666666666,3.0,3.0,None,,0.3135060210006486,0.3135060210006486,,,1,Scanner,1,2019_Sep_06_1102,MID,3.1.5,60.30067423658321,,,,,,
SmallReward,2000.0,0.0,5.0,5.0,5.0,,66.83778957200046,None,2000.0,68.87092695799947,None,None,68.87092695799947,None,1.66,6.0,70.92070905000219,None,1,1.0,70.92070905000219,None,You won $0.20!,0.2,2.0,4.0,0.34,83.33333333333334,0.27915539579989856,[1],66.66666666666666,3.0,3.0,None,,0.27874083000278915,0.27874083000278915,,,1,Scanner,1,2019_Sep_06_1102,MID,3.1.5,60.30067423658321,,,,,,
SmallPun,3500.0,0.0,6.0,6.0,6.0,,72.95446996800092,None,3500.0,74.98804221200044,None,None,74.98804221200044,None,1.66,7.0,78.52082136100216,None,1,1.0,78.52082136100216,None,You did not lose $0.20!,0.2,5.0,5.0,0.34,85.71428571428571,0.279391167833334,"[1, 1]",66.66666666666666,3.0,3.0,None,,0.28057002800051123,0.28057002800051123,,,1,Scanner,1,2019_Sep_06_1102,MID,3.1.5,60.30067423658321,,,,,,
Triangle,1500.0,0.0,7.0,7.0,7.0,,80.57115197800158,None,1500.0,82.60495455400087,None,None,82.60495455400087,None,1.66,8.0,84.13873948100081,None,None,0.0,84.13873948100081,None,You did not win or lose anything!,0.2,3.0,5.0,0.34,75.0,0.279391167833334,"[1, 1]",66.66666666666666,3.0,3.0,1,0.05401967600118951,0.3940196760011895,,,,1,Scanner,1,2019_Sep_06_1102,MID,3.1.5,60.30067423658321,,,,,,
SmallReward,1500.0,0.0,8.0,8.0,8.0,,86.20515348399931,None,1500.0,88.23916245800136,None,None,88.23916245800136,None,1.66,9.0,89.77931463500136,None,1,1.0,89.77931463500136,None,You won $0.20!,0.4,2.0,6.0,0.30999999999999994,77.7777777777778,0.2754983035717617,[],83.33333333333333,6.0,3.0,None,,0.25214111800232786,0.25214111800232786,Adjusting RT...,,1,Scanner,1,2019_Sep_06_1102,MID,3.1.5,60.30067423658321,,,,,,
LgReward,2000.0,0.0,9.0,9.0,9.0,,91.83855601200048,None,2000.0,93.86171298000043,None,1,93.86171298000043,None,1.69,10.0,95.9226196540003,None,1,1.0,95.9226196540003,None,You won $5.00!,5.4,1.0,7.0,0.30999999999999994,80.0,0.2729143161254797,[1],83.33333333333333,6.0,3.0,None,,0.2548264040015056,0.2548264040015056,,1.2067730620001385,1,Scanner,1,2019_Sep_06_1102,MID,3.1.5,60.30067423658321,,,,,,
Triangle,2000.0,0.0,10.0,10.0,10.0,,97.9564306780012,None,2000.0,99.98997868000151,None,None,99.98997868000151,None,1.69,11.0,102.02235125100195,None,None,0.0,102.02235125100195,None,You did not win or lose anything!,5.4,3.0,7.0,0.30999999999999994,72.72727272727273,0.2729143161254797,[1],83.33333333333333,6.0,3.0,None,,0.2548264040015056,,,,1,Scanner,1,2019_Sep_06_1102,MID,3.1.5,60.30067423658321,,,,,,
SmallReward,1500.0,0.0,11.0,11.0,11.0,,104.08951514799992,None,1500.0,106.1133256760004,None,None,106.1133256760004,None,1.69,12.0,107.67277878399908,None,1,1.0,107.67277878399908,None,You won $0.20!,5.6000000000000005,2.0,8.0,0.30999999999999994,75.0,0.2674448335557018,"[1, 1]",83.33333333333333,6.0,3.0,None,,0.22368897299747914,0.22368897299747914,,,1,Scanner,1,2019_Sep_06_1102,MID,3.1.5,60.30067423658321,,,,,,
SmallPun,4000.0,0.0,12.0,12.0,12.0,,109.72329594799885,None,4000.0,111.74706183200031,None,None,111.74706183200031,None,1.69,13.0,115.79034359100115,None,None,0.0,115.79034359100115,None,You lost $0.20!,5.4,5.0,9.0,0.2799999999999999,69.23076923076923,0.2674448335557018,[],83.33333333333333,9.0,3.0,1,0.009753132002515486,0.2897531320025154,,Adjusting RT...,,1,Scanner,1,2019_Sep_06_1102,MID,3.1.5,60.30067423658321,,,,,,
Triangle,1500.0,0.0,13.0,13.0,13.0,,117.84112834000187,None,1500.0,119.8654652590012,None,None,119.8654652590012,None,1.7200000000000002,14.0,121.40773379399981,None,None,0.0,121.40773379399981,None,You did not win or lose anything!,5.4,3.0,9.0,0.2799999999999999,64.28571428571429,0.2674448335557018,[],83.33333333333333,9.0,3.0,1,0.009737594999023713,0.28973759499902363,,,,1,Scanner,1,2019_Sep_06_1102,MID,3.1.5,60.30067423658321,,,,,,
LgPun,1500.0,0.0,14.0,14.0,14.0,,123.45786142900032,None,1500.0,125.48294910500044,None,None,125.48294910500044,None,1.7200000000000002,15.0,127.02453732600044,None,None,0.0,127.02453732600044,None,You lost $5.00!,0.4000000000000004,4.0,10.0,0.2799999999999999,60.0,0.2674448335557018,[0],83.33333333333333,9.0,3.0,None,,0.28973759499902363,,,,1,Scanner,1,2019_Sep_06_1102,MID,3.1.5,60.30067423658321,,,,,,
SmallReward,3500.0,0.0,15.0,15.0,15.0,,129.08502155099995,None,3500.0,131.1171030459991,None,None,131.1171030459991,None,1.7200000000000002,16.0,134.66755316200215,None,None,0.0,134.66755316200215,None,You did not win $0.20!,0.4000000000000004,2.0,11.0,0.2799999999999999,56.25,0.2674448335557018,"[0, 0]",83.33333333333333,9.0,3.0,None,,0.28973759499902363,,,,1,Scanner,1,2019_Sep_06_1102,MID,3.1.5,60.30067423658321,,,,,,
LgPun,3000.0,0.0,16.0,16.0,16.0,,136.72517069600144,None,3000.0,138.75103141,None,None,138.75103141,None,1.7200000000000002,17.0,141.7924538820007,None,1,1.0,141.7924538820007,None,You did not lose $5.00!,0.4000000000000004,4.0,12.0,0.29999999999999993,58.82352941176471,0.2648014937003609,[],49.99999999999999,12.0,3.0,None,,0.2410114350022923,0.2410114350022923,Adjusting RT...,,1,Scanner,1,2019_Sep_06_1102,MID,3.1.5,60.30067423658321,,,,,,
Triangle,1500.0,0.0,17.0,17.0,17.0,,143.8259766580013,None,1500.0,145.85208711499945,None,None,145.85208711499945,None,1.7000000000000002,18.0,147.3869471450016,None,1,1.0,147.3869471450016,None,You did not win or lose anything!,0.4000000000000004,3.0,12.0,0.29999999999999993,61.111111111111114,0.2641280271821994,[],49.99999999999999,12.0,3.0,None,,0.2573933620005846,0.2573933620005846,,,1,Scanner,1,2019_Sep_06_1102,MID,3.1.5,60.30067423658321,,,,,,
LgReward,3500.0,0.0,18.0,18.0,18.0,,149.43574537099994,None,3500.0,151.46941211900048,None,None,151.46941211900048,None,1.7000000000000002,19.0,155.02009189100139,None,1,1.0,155.02009189100139,None,You won $5.00!,5.4,1.0,13.0,0.29999999999999993,63.157894736842096,0.2627242187503119,[1],49.99999999999999,12.0,3.0,None,,0.24728232599954936,0.24728232599954936,,,1,Scanner,1,2019_Sep_06_1102,MID,3.1.5,60.30067423658321,,,,,,
LgPun,1500.0,0.0,19.0,19.0,19.0,,157.05991771200206,None,1500.0,159.08746830900054,None,None,159.08746830900054,None,1.7000000000000002,20.0,160.62077661900184,None,1,1.0,160.62077661900184,None,You did not lose $5.00!,5.4,4.0,14.0,0.29999999999999993,65.0,0.2604152054616581,"[1, 1]",49.99999999999999,12.0,3.0,None,,0.2327070459978131,0.2327070459978131,,,1,Scanner,1,2019_Sep_06_1102,MID,3.1.5,60.30067423658321,,,,,,
SmallReward,1500.0,0.0,20.0,20.0,20.0,,162.67143986999872,None,1500.0,164.70480656699874,None,None,164.70480656699874,None,1.7000000000000002,21.0,166.25497490500132,None,1,1.0,166.25497490500132,None,You won $0.20!,5.6000000000000005,2.0,15.0,0.2799999999999999,66.66666666666666,0.2611267189287381,[],66.66666666666666,15.0,3.0,None,,0.2703763940007775,0.2703763940007775,Adjusting RT...,,1,Scanner,1,2019_Sep_06_1102,MID,3.1.5,60.30067423658321,,,,,,
SmallReward,2000.0,0.0,21.0,21.0,21.0,,168.30504649300198,None,2000.0,170.33836214899932,None,None,170.33836214899932,None,1.7200000000000002,22.0,172.38774218600156,None,1,1.0,172.38774218600156,None,You won $0.20!,5.800000000000002,2.0,16.0,0.2799999999999999,68.18181818181817,0.2579649940002128,[1],66.66666666666666,15.0,3.0,None,,0.21370084500085795,0.21370084500085795,,,1,Scanner,1,2019_Sep_06_1102,MID,3.1.5,60.30067423658321,,,,,,
LgPun,2000.0,0.0,22.0,22.0,22.0,,174.42806117199868,None,2000.0,176.45682989499986,None,None,176.45682989499986,None,1.7200000000000002,23.0,178.48976699899868,None,1,1.0,178.48976699899868,None,You did not lose $5.00!,5.800000000000002,4.0,17.0,0.2799999999999999,69.56521739130434,0.2552606080625992,"[1, 1]",66.66666666666666,15.0,3.0,None,,0.21469481899839596,0.21469481899839596,,,1,Scanner,1,2019_Sep_06_1102,MID,3.1.5,60.30067423658321,,,,,,
SmallPun,1500.0,0.0,23.0,23.0,23.0,,180.5284141779994,None,1500.0,182.55654003200107,None,None,182.55654003200107,None,1.7200000000000002,24.0,184.09421497600124,None,None,0.0,184.09421497600124,None,You lost $0.20!,5.6000000000000005,5.0,18.0,0.2499999999999999,66.66666666666666,0.2552606080625992,[],83.33333333333333,18.0,3.0,None,,0.21469481899839596,,Adjusting RT...,,1,Scanner,1,2019_Sep_06_1102,MID,3.1.5,60.30067423658321,,,,,,
LgReward,4000.0,0.0,24.0,24.0,24.0,,186.1403137710004,None,4000.0,188.17407977000042,None,1,188.17407977000042,None,1.75,25.0,192.225210675002,None,None,0.0,192.225210675002,None,You did not win $5.00!,5.6000000000000005,1.0,19.0,0.2499999999999999,64.0,0.2552606080625992,[0],83.33333333333333,18.0,3.0,1,0.02379666799970437,0.27379666799970426,,,0.2482970789969841,1,Scanner,1,2019_Sep_06_1102,MID,3.1.5,60.30067423658321,,,,,,
SmallReward,2500.0,0.0,25.0,25.0,25.0,,194.2755147390017,None,2500.0,196.30837186799909,None,None,196.30837186799909,None,1.75,26.0,198.85879941399983,None,None,0.0,198.85879941399983,None,You did not win $0.20!,5.6000000000000005,2.0,20.0,0.2499999999999999,61.53846153846154,0.2552606080625992,"[0, 0]",83.33333333333333,18.0,3.0,1,0.02175417199759977,0.2717541719975997,,,,1,Scanner,1,2019_Sep_06_1102,MID,3.1.5,60.30067423658321,,,,,,
Triangle,4000.0,0.0,26.0,26.0,26.0,,200.89568661500016,None,4000.0,202.92614782799862,None,None,202.92614782799862,None,1.75,27.0,206.95994127900119,None,None,0.0,206.95994127900119,None,You did not win or lose anything!,5.6000000000000005,3.0,20.0,0.2499999999999999,59.25925925925925,0.2552606080625992,"[0, 0]",83.33333333333333,18.0,3.0,1,0.016723269000067376,0.2667232690000673,,,,1,Scanner,1,2019_Sep_06_1102,MID,3.1.5,60.30067423658321,,,,,,
SmallPun,2000.0,0.0,27.0,27.0,27.0,,208.9963920629998,None,2000.0,211.02715753699886,None,None,211.02715753699886,None,1.75,28.0,213.061019609002,None,None,0.0,213.061019609002,None,You lost $0.20!,5.4,5.0,21.0,0.2899999999999999,57.14285714285714,0.2552606080625992,[],33.33333333333333,21.0,3.0,1,0.046418977999564966,0.3364189779995649,,Adjusting RT...,,1,Scanner,1,2019_Sep_06_1102,MID,3.1.5,60.30067423658321,,,,,,
SmallReward,3000.0,0.0,28.0,28.0,28.0,,215.11091867100185,None,3000.0,217.14467644799882,None,1,217.14467644799882,None,1.71,29.0,220.19502069599912,None,1,1.0,220.19502069599912,None,You won $0.20!,5.6000000000000005,2.0,22.0,0.2899999999999999,58.620689655172406,0.25362354629417977,[1],33.33333333333333,21.0,3.0,None,,0.2274305579994689,0.2274305579994689,,0.8917756190021464,1,Scanner,1,2019_Sep_06_1102,MID,3.1.5,60.30067423658321,,,,,,
LgReward,1500.0,0.0,29.0,29.0,29.0,,222.2447468009996,None,1500.0,224.2787897080016,None,None,224.2787897080016,None,1.71,30.0,225.82925871599946,None,None,0.0,225.82925871599946,None,You did not win $5.00!,5.6000000000000005,1.0,23.0,0.2899999999999999,56.66666666666666,0.25362354629417977,"[1, 0]",33.33333333333333,21.0,3.0,1,0.17253568100204575,0.4625356810020457,,,,1,Scanner,1,2019_Sep_06_1102,MID,3.1.5,60.30067423658321,,,,,,
SmallPun,2000.0,0.0,30.0,30.0,30.0,,227.8643785860004,None,2000.0,229.89630742300145,None,None,229.89630742300145,None,1.71,31.0,231.929955642001,None,1,1.0,231.929955642001,None,You did not lose $0.20!,5.6000000000000005,5.0,24.0,0.3299999999999999,58.064516129032256,0.2440082313888625,[],33.33333333333333,24.0,3.0,None,,0.08054787799846963,0.08054787799846963,Adjusting RT...,,1,Scanner,1,2019_Sep_06_1102,MID,3.1.5,60.30067423658321,,,,,,
LgPun,2000.0,0.0,31.0,31.0,31.0,,233.96463387100087,None,2000.0,235.9975984369994,None,None,235.9975984369994,None,1.6700000000000002,32.0,238.03060017000095,None,1,1.0,238.03060017000095,None,You did not lose $5.00!,5.6000000000000005,4.0,25.0,0.3299999999999999,59.375,0.2457368870525801,[1],33.33333333333333,24.0,3.0,None,,0.2768526889994973,0.2768526889994973,,,1,Scanner,1,2019_Sep_06_1102,MID,3.1.5,60.30067423658321,,,,,,
LgReward,3000.0,0.0,32.0,32.0,32.0,,240.08090000399898,None,3000.0,242.11498289700103,None,None,242.11498289700103,None,1.6700000000000002,33.0,245.1651788870004,None,1,1.0,245.1651788870004,None,You won $5.00!,10.6,1.0,26.0,0.3299999999999999,60.60606060606061,0.24765786254993144,"[1, 1]",33.33333333333333,24.0,3.0,None,,0.28415639699960593,0.28415639699960593,,,1,Scanner,1,2019_Sep_06_1102,MID,3.1.5,60.30067423658321,,,,,,
Triangle,3500.0,0.0,33.0,33.0,33.0,,247.21502894000147,None,3500.0,249.2491869170008,None,None,249.2491869170008,None,1.6700000000000002,34.0,252.7827644589997,None,None,0.0,252.7827644589997,None,You did not win or lose anything!,10.6,3.0,26.0,0.3299999999999999,58.82352941176471,0.24765786254993144,"[1, 1]",33.33333333333333,24.0,3.0,1,0.045000082998740254,0.37500008299874016,,,,1,Scanner,1,2019_Sep_06_1102,MID,3.1.5,60.30067423658321,,,,,,
Triangle,3000.0,0.0,34.0,34.0,34.0,,254.8161723109988,None,3000.0,256.8504192190012,None,None,256.8504192190012,None,1.6700000000000002,35.0,259.8831977459995,None,1,1.0,259.8831977459995,None,You did not win or lose anything!,10.6,3.0,26.0,0.3299999999999999,60.0,0.25010836342837484,"[1, 1]",33.33333333333333,24.0,3.0,None,,0.29911838099724264,0.29911838099724264,,,1,Scanner,1,2019_Sep_06_1102,MID,3.1.5,60.30067423658321,,,,,,
LgPun,1500.0,0.0,35.0,35.0,35.0,,261.9334528370018,None,1500.0,263.9672760329995,None,None,263.9672760329995,None,1.6700000000000002,36.0,265.50032324700084,None,1,1.0,265.50032324700084,None,You did not lose $5.00!,10.6,4.0,27.0,0.29999999999999993,61.111111111111114,0.249927930545296,[],83.33333333333333,27.0,3.0,None,,0.2461388400006399,0.2461388400006399,Adjusting RT...,,1,Scanner,1,2019_Sep_06_1102,MID,3.1.5,60.30067423658321,,,,,,
LgReward,1500.0,0.0,36.0,36.0,36.0,,267.56706933900205,None,1500.0,269.5838480970014,None,None,269.5838480970014,None,1.7000000000000002,37.0,271.1339845770017,None,1,1.0,271.1339845770017,None,You won $5.00!,15.6,1.0,28.0,0.29999999999999993,62.16216216216216,0.2502123269998423,[1],83.33333333333333,27.0,3.0,None,,0.2564690489998611,0.2564690489998611,,,1,Scanner,1,2019_Sep_06_1102,MID,3.1.5,60.30067423658321,,,,,,
LgPun,3500.0,0.0,37.0,37.0,37.0,,273.16730279400144,None,3500.0,275.2011114999986,None,None,275.2011114999986,None,1.7000000000000002,38.0,278.7340221480008,None,None,0.0,278.7340221480008,None,You lost $5.00!,10.6,4.0,29.0,0.29999999999999993,60.526315789473685,0.2502123269998423,"[1, 0]",83.33333333333333,27.0,3.0,None,,0.2564690489998611,,,,1,Scanner,1,2019_Sep_06_1102,MID,3.1.5,60.30067423658321,,,,,,
LgPun,1500.0,0.0,38.0,38.0,38.0,,280.7676564770009,None,1500.0,282.80085494800005,None,None,282.80085494800005,None,1.7000000000000002,39.0,284.33420180699983,None,1,1.0,284.33420180699983,None,You did not lose $5.00!,10.6,4.0,30.0,0.2699999999999999,61.53846153846154,0.25075557362485296,[],83.33333333333333,30.0,3.0,None,,0.26325024600009783,0.26325024600009783,Adjusting RT...,,1,Scanner,1,2019_Sep_06_1102,MID,3.1.5,60.30067423658321,,,,,,
SmallPun,2500.0,0.0,39.0,39.0,39.0,,286.3681288900006,None,2500.0,288.40202879299983,None,None,288.40202879299983,None,1.73,40.0,290.93495319000067,None,None,0.0,290.93495319000067,None,You lost $0.20!,10.400000000000002,5.0,31.0,0.2699999999999999,60.0,0.25075557362485296,[0],83.33333333333333,30.0,3.0,1,0.010871776001295077,0.280871776001295,,,,1,Scanner,1,2019_Sep_06_1102,MID,3.1.5,60.30067423658321,,,,,,
LgReward,1500.0,0.0,40.0,40.0,40.0,,292.9843457030001,None,1500.0,295.01892206900084,None,None,295.01892206900084,None,1.73,41.0,296.56875237799983,None,None,0.0,296.56875237799983,None,You did not win $5.00!,10.400000000000002,1.0,32.0,0.2699999999999999,58.536585365853654,0.25075557362485296,"[0, 0]",83.33333333333333,30.0,3.0,1,0.0031324510018748697,0.2731324510018748,,,,1,Scanner,1,2019_Sep_06_1102,MID,3.1.5,60.30067423658321,,,,,,
SmallPun,1500.0,0.0,41.0,41.0,41.0,,298.61909021799875,None,1500.0,300.6530008209993,None,None,300.6530008209993,None,1.73,42.0,302.18524184600034,None,1,1.0,302.18524184600034,None,You did not lose $0.20!,10.400000000000002,5.0,33.0,0.2899999999999999,59.523809523809526,0.2492541369998071,[],49.99999999999999,33.0,3.0,None,,0.21321965799870668,0.21321965799870668,Adjusting RT...,,1,Scanner,1,2019_Sep_06_1102,MID,3.1.5,60.30067423658321,,,,,,
Triangle,2000.0,0.0,42.0,42.0,42.0,,304.21931893999863,None,2000.0,306.2532919559999,None,None,306.2532919559999,None,1.71,43.0,308.2858806719996,None,1,1.0,308.2858806719996,None,You did not win or lose anything!,10.400000000000002,3.0,33.0,0.2899999999999999,60.465116279069754,0.24860878449978305,[],49.99999999999999,33.0,3.0,None,,0.23247497199918146,0.23247497199918146,,,1,Scanner,1,2019_Sep_06_1102,MID,3.1.5,60.30067423658321,,,,,,
LgPun,4000.0,0.0,43.0,43.0,43.0,,310.31909551900026,None,4000.0,312.3524356400012,None,None,312.3524356400012,None,1.71,44.0,316.3866960640007,None,None,0.0,316.3866960640007,None,You lost $5.00!,5.400000000000002,4.0,34.0,0.2899999999999999,59.09090909090909,0.24860878449978305,[0],49.99999999999999,33.0,3.0,1,-0.0014557579997926948,0.28854424200020723,,,,1,Scanner,1,2019_Sep_06_1102,MID,3.1.5,60.30067423658321,,,,,,
SmallReward,1500.0,0.0,44.0,44.0,44.0,,318.4526849739996,None,1500.0,320.48722612599886,None,None,320.48722612599886,None,1.71,45.0,322.0373622280022,None,None,0.0,322.0373622280022,None,You did not win $0.20!,5.400000000000002,2.0,35.0,0.2899999999999999,57.77777777777778,0.24860878449978305,"[0, 0]",49.99999999999999,33.0,3.0,1,-0.009927109997079242,0.2800728900029207,,,,1,Scanner,1,2019_Sep_06_1102,MID,3.1.5,60.30067423658321,,,,,,
LgReward,2500.0,0.0,45.0,45.0,45.0,,324.08744223699983,None,2500.0,326.1213151109987,None,None,326.1213151109987,None,1.71,46.0,328.6603537190022,None,None,0.0,328.6603537190022,None,You did not win $5.00!,5.400000000000002,1.0,36.0,0.3399999999999999,56.52173913043478,0.24860878449978305,[],16.666666666666664,36.0,3.0,1,-0.0009102260009967723,0.33908977399900314,,Adjusting RT...,,1,Scanner,1,2019_Sep_06_1102,MID,3.1.5,60.30067423658321,,,,,,
SmallPun,3000.0,0.0,46.0,46.0,46.0,,330.7045414230015,None,3000.0,332.73842389499987,None,None,332.73842389499987,None,1.66,47.0,335.77131776900205,None,1,1.0,335.77131776900205,None,You did not lose $0.20!,5.400000000000002,5.0,37.0,0.3399999999999999,57.44680851063831,0.25033186870347923,[1],16.666666666666664,36.0,3.0,None,,0.2951320579995809,0.2951320579995809,,,1,Scanner,1,2019_Sep_06_1102,MID,3.1.5,60.30067423658321,,,,,,
LgReward,2000.0,0.0,47.0,47.0,47.0,,337.83833899599995,None,2000.0,339.8722152600021,None,None,339.8722152600021,None,1.66,48.0,341.92195426100085,None,None,0.0,341.92195426100085,None,You did not win $5.00!,5.400000000000002,1.0,38.0,0.3399999999999999,56.25,0.25033186870347923,"[1, 0]",16.666666666666664,36.0,3.0,1,0.027962956999544986,0.3679629569995449,,,,1,Scanner,1,2019_Sep_06_1102,MID,3.1.5,60.30067423658321,,,,,,
SmallReward,4000.0,0.0,48.0,48.0,48.0,,343.9720872079997,None,4000.0,345.9945511709993,None,None,345.9945511709993,None,1.66,49.0,350.0552986780021,None,None,0.0,350.0552986780021,None,You did not win $0.20!,5.400000000000002,2.0,39.0,0.3899999999999999,55.10204081632652,0.25033186870347923,[],16.666666666666664,39.0,3.0,None,,0.3679629569995449,,Adjusting RT...,,1,Scanner,1,2019_Sep_06_1102,MID,3.1.5,60.30067423658321,,,,,,
SmallPun,1500.0,0.0,49.0,49.0,49.0,,352.08919151200104,None,1500.0,354.11195888899965,None,None,354.11195888899965,None,1.61,50.0,355.6554326190017,None,1,1.0,355.6554326190017,None,You did not lose $0.20!,5.400000000000002,5.0,40.0,0.3899999999999999,56.00000000000001,0.2516016219998554,[1],16.666666666666664,39.0,3.0,None,,0.28588496100201155,0.28588496100201155,,,1,Scanner,1,2019_Sep_06_1102,MID,3.1.5,60.30067423658321,,,,,,
,,,,,,,,,,,,,,,,,,,,,,,,,,,,,,,,,,,,,,,,1,Scanner,1,2019_Sep_06_1102,MID,3.1.5,60.30067423658321,,,,,,
Triangle,2000.0,0.0,0.0,0.0,0.0,TimeVersion8.csv,43.675954369002284,None,2000.0,45.708599826000864,None,None,45.708599826000864,None,1.64,1.0,47.74789544500163,None,1,1.0,47.74789544500163,None,You did not win or lose anything!,0.0,3.0,0.0,0.36,100.0,0.2718419510019885,[],0.0,0.0,3.0,None,,0.2718419510019885,0.2718419510019885,,,1,Scanner,2,2019_Sep_06_1108,MID,3.1.5,60.02840616167781,,,,,,
SmallReward,3500.0,0.0,1.0,1.0,1.0,,49.809316662001955,None,3500.0,51.843116263000404,None,None,51.843116263000404,None,1.64,2.0,55.3939830849995,None,1,1.0,55.3939830849995,None,You won $0.20!,0.2,2.0,1.0,0.36,100.0,0.26782535900019866,[1],0.0,0.0,3.0,None,,0.26380876699840883,0.26380876699840883,,,1,Scanner,2,2019_Sep_06_1108,MID,3.1.5,60.02840616167781,,,,,,
LgPun,2000.0,0.0,2.0,2.0,2.0,,57.43197798700203,None,2000.0,59.46138677000272,None,None,59.46138677000272,None,1.64,3.0,61.49480013200082,None,1,1.0,61.49480013200082,None,You did not lose $5.00!,0.2,4.0,2.0,0.36,100.0,0.2768641333338261,"[1, 1]",0.0,0.0,3.0,None,,0.29494168200108106,0.29494168200108106,,,1,Scanner,2,2019_Sep_06_1108,MID,3.1.5,60.02840616167781,,,,,,
SmallReward,1500.0,0.0,3.0,3.0,3.0,,63.56120453400217,None,1500.0,65.59508820200062,None,None,65.59508820200062,None,1.64,4.0,67.14528337700176,None,None,0.0,67.14528337700176,None,You did not win $0.20!,0.2,2.0,3.0,0.34,75.0,0.2768641333338261,[],66.66666666666666,3.0,3.0,1,-0.010225776997685898,0.3297742230023141,,Adjusting RT...,,1,Scanner,2,2019_Sep_06_1108,MID,3.1.5,60.02840616167781,,,,,,
LgReward,4000.0,0.0,4.0,4.0,4.0,,69.1786740030002,None,4000.0,71.21297521300221,None,1,71.21297521300221,None,1.66,5.0,75.26275262800118,None,1,1.0,75.26275262800118,None,You won $5.00!,5.2,1.0,4.0,0.34,80.0,0.2753947242499635,[1],66.66666666666666,3.0,3.0,None,,0.2709864969983755,0.2709864969983755,,0.3077754580008332,1,Scanner,2,2019_Sep_06_1108,MID,3.1.5,60.02840616167781,,,,,,
LgPun,1500.0,0.0,5.0,5.0,5.0,,77.29601378799998,None,1500.0,79.32959074700193,None,None,79.32959074700193,None,1.66,6.0,80.8640405670012,None,1,1.0,80.8640405670012,None,You did not lose $5.00!,5.2,4.0,5.0,0.34,83.33333333333334,0.28245624599949226,"[1, 1]",66.66666666666666,3.0,3.0,None,,0.3107023329976073,0.3107023329976073,,,1,Scanner,2,2019_Sep_06_1108,MID,3.1.5,60.02840616167781,,,,,,
Triangle,3500.0,0.0,6.0,6.0,6.0,,82.91379739700278,None,3500.0,84.94794719499987,None,1,84.94794719499987,None,1.66,7.0,88.48117309500229,None,1,1.0,88.48117309500229,None,You did not win or lose anything!,5.2,3.0,5.0,0.34,85.71428571428571,0.2834754693327947,"[1, 1]",66.66666666666666,3.0,3.0,None,,0.288571585999307,0.288571585999307,,3.2866642080007296,1,Scanner,2,2019_Sep_06_1108,MID,3.1.5,60.02840616167781,,,,,,
LgPun,1500.0,0.0,7.0,7.0,7.0,,90.53359334700144,None,1500.0,92.56530947000284,None,None,92.56530947000284,None,1.66,8.0,94.09837033800068,None,None,0.0,94.09837033800068,None,You lost $5.00!,0.20000000000000015,4.0,6.0,0.31999999999999995,75.0,0.2834754693327947,[],66.66666666666666,6.0,3.0,1,0.023096728000382427,0.3430967280003824,,Adjusting RT...,,1,Scanner,2,2019_Sep_06_1108,MID,3.1.5,60.02840616167781,,,,,,
SmallReward,1500.0,0.0,8.0,8.0,8.0,,96.16567427500195,None,1500.0,98.20004536200213,None,None,98.20004536200213,None,1.6800000000000002,9.0,99.74896830900252,None,None,0.0,99.74896830900252,None,You did not win $0.20!,0.20000000000000015,2.0,7.0,0.31999999999999995,66.66666666666666,0.2834754693327947,[0],66.66666666666666,6.0,3.0,1,-0.0011609419998421802,0.31883905800015777,,,,1,Scanner,2,2019_Sep_06_1108,MID,3.1.5,60.02840616167781,,,,,,
SmallPun,2500.0,0.0,9.0,9.0,9.0,,101.78526529600276,None,2500.0,103.81718377500148,None,None,103.81718377500148,None,1.6800000000000002,10.0,106.35046481500105,None,1,1.0,106.35046481500105,None,You did not lose $0.20!,0.20000000000000015,5.0,8.0,0.31999999999999995,70.0,0.2804306951423184,"[0, 1]",66.66666666666666,6.0,3.0,None,,0.2621620499994606,0.2621620499994606,,,1,Scanner,2,2019_Sep_06_1108,MID,3.1.5,60.02840616167781,,,,,,
SmallPun,1500.0,0.0,10.0,10.0,10.0,,108.38455323900051,None,1500.0,110.4176721440017,None,None,110.4176721440017,None,1.6800000000000002,11.0,111.96749370700128,None,None,0.0,111.96749370700128,None,You lost $0.20!,1.6653345369377348e-16,5.0,9.0,0.34,63.63636363636363,0.2804306951423184,[],49.99999999999999,9.0,3.0,1,0.017474862001108704,0.3574748620011087,,Adjusting RT...,,1,Scanner,2,2019_Sep_06_1108,MID,3.1.5,60.02840616167781,,,,,,
LgReward,3500.0,0.0,11.0,11.0,11.0,,114.03416488800212,None,3500.0,116.05201644300179,None,None,116.05201644300179,None,1.66,12.0,119.6021596110004,None,1,1.0,119.6021596110004,None,You won $5.00!,5.0,1.0,10.0,0.34,66.66666666666666,0.27906023474952235,[1],49.99999999999999,9.0,3.0,None,,0.26946701199995005,0.26946701199995005,,,1,Scanner,2,2019_Sep_06_1108,MID,3.1.5,60.02840616167781,,,,,,
LgPun,1500.0,0.0,12.0,12.0,12.0,,121.63566162500138,None,1500.0,123.66993153400108,None,None,123.66993153400108,None,1.66,13.0,125.20241419300146,None,None,0.0,125.20241419300146,None,You lost $5.00!,0.0,4.0,11.0,0.34,61.53846153846154,0.27906023474952235,"[1, 0]",49.99999999999999,9.0,3.0,1,0.007580919998872558,0.3475809199988725,,,,1,Scanner,2,2019_Sep_06_1108,MID,3.1.5,60.02840616167781,,,,,,
SmallPun,2000.0,0.0,13.0,13.0,13.0,,127.23645226200097,None,2000.0,129.26977980499942,None,None,129.26977980499942,None,1.66,14.0,131.30319149700156,None,1,1.0,131.30319149700156,None,You did not lose $0.20!,0.0,5.0,12.0,0.36,64.28571428571429,0.2773446783325603,[],49.99999999999999,12.0,3.0,None,,0.2636202269968635,0.2636202269968635,Adjusting RT...,,1,Scanner,2,2019_Sep_06_1108,MID,3.1.5,60.02840616167781,,,,,,
LgReward,1500.0,0.0,14.0,14.0,14.0,,133.36977727700287,None,1500.0,135.40423905300122,None,None,135.40423905300122,None,1.64,15.0,136.95394778899936,None,None,0.0,136.95394778899936,None,You did not win $5.00!,0.0,1.0,13.0,0.36,60.0,0.2773446783325603,[0],49.99999999999999,12.0,3.0,1,0.08789929400154506,0.44789929400154505,,,,1,Scanner,2,2019_Sep_06_1108,MID,3.1.5,60.02840616167781,,,,,,
LgReward,1500.0,0.0,15.0,15.0,15.0,,139.0036479740011,None,1500.0,141.0373271690005,None,None,141.0373271690005,None,1.64,16.0,142.5871837199993,None,1,1.0,142.5871837199993,None,You won $5.00!,5.0,1.0,14.0,0.36,62.5,0.27516591589919703,"[0, 1]",49.99999999999999,12.0,3.0,None,,0.2555570539989276,0.2555570539989276,,,1,Scanner,2,2019_Sep_06_1108,MID,3.1.5,60.02840616167781,,,,,,
SmallReward,2000.0,0.0,16.0,16.0,16.0,,144.63692799099954,None,2000.0,146.67161372100236,None,None,146.67161372100236,None,1.64,17.0,148.72087580000152,None,None,0.0,148.72087580000152,None,You did not win $0.20!,5.0,2.0,15.0,0.38,58.82352941176471,0.27516591589919703,[],49.99999999999999,15.0,3.0,1,0.01523994400122319,0.3952399440012232,,Adjusting RT...,,1,Scanner,2,2019_Sep_06_1108,MID,3.1.5,60.02840616167781,,,,,,
LgReward,2500.0,0.0,17.0,17.0,17.0,,150.7718079680017,None,2500.0,152.80512770900168,None,None,152.80512770900168,None,1.62,18.0,155.3553127790001,None,1,1.0,155.3553127790001,None,You won $5.00!,10.0,1.0,16.0,0.38,61.111111111111114,0.2750057830899922,[1],49.99999999999999,15.0,3.0,None,,0.2734044549979444,0.2734044549979444,,,1,Scanner,2,2019_Sep_06_1108,MID,3.1.5,60.02840616167781,,,,,,
LgReward,2000.0,0.0,18.0,18.0,18.0,,157.404901711001,None,2000.0,159.43846603100246,None,None,159.43846603100246,None,1.62,19.0,161.4880945210025,None,1,1.0,161.4880945210025,None,You won $5.00!,15.0,1.0,17.0,0.38,63.157894736842096,0.2728008205825366,"[1, 1]",49.99999999999999,15.0,3.0,None,,0.2485462330005248,0.2485462330005248,,,1,Scanner,2,2019_Sep_06_1108,MID,3.1.5,60.02840616167781,,,,,,
SmallPun,1500.0,0.0,19.0,19.0,19.0,,163.52204005900057,None,1500.0,165.55559851699942,None,None,165.55559851699942,None,1.62,20.0,167.0889463780004,None,None,0.0,167.0889463780004,None,You lost $0.20!,14.8,5.0,18.0,0.4,60.0,0.2728008205825366,[],49.99999999999999,18.0,3.0,None,,0.2485462330005248,,Adjusting RT...,,1,Scanner,2,2019_Sep_06_1108,MID,3.1.5,60.02840616167781,,,,,,
SmallReward,3000.0,0.0,20.0,20.0,20.0,,169.13936848600133,None,3000.0,171.1729172100022,None,1,171.1729172100022,None,1.6,21.0,174.22310093800118,None,1,1.0,174.22310093800118,None,You won $0.20!,15.0,2.0,19.0,0.4,61.904761904761905,0.2712482362299992,[1],49.99999999999999,18.0,3.0,None,,0.25261722399955033,0.25261722399955033,,0.2718295519989624,1,Scanner,2,2019_Sep_06_1108,MID,3.1.5,60.02840616167781,,,,,,
Triangle,4000.0,0.0,21.0,21.0,21.0,,176.25648659500075,None,4000.0,178.29036959900262,None,None,178.29036959900262,None,1.6,22.0,182.32320272600188,None,1,1.0,182.32320272600188,None,You did not win or lose anything!,15.0,3.0,19.0,0.4,63.63636363636363,0.27176928607072376,[1],49.99999999999999,18.0,3.0,None,,0.27854293400014285,0.27854293400014285,,,1,Scanner,2,2019_Sep_06_1108,MID,3.1.5,60.02840616167781,,,,,,
LgPun,2500.0,0.0,22.0,22.0,22.0,,184.35600911499927,None,2500.0,186.3907544230024,None,None,186.3907544230024,None,1.6,23.0,188.924139439001,None,1,1.0,188.924139439001,None,You did not lose $5.00!,15.0,4.0,20.0,0.4,65.21739130434783,0.27755838693265106,"[1, 1]",49.99999999999999,18.0,3.0,None,,0.3586057989996334,0.3586057989996334,,,1,Scanner,2,2019_Sep_06_1108,MID,3.1.5,60.02840616167781,,,,,,
LgPun,2000.0,0.0,23.0,23.0,23.0,,190.9576502780001,None,2000.0,192.99135941600247,None,None,192.99135941600247,None,1.6,24.0,195.02447406899955,None,1,1.0,195.02447406899955,None,You did not lose $5.00!,15.0,4.0,21.0,0.37,66.66666666666666,0.28254044012419394,[],83.33333333333333,21.0,3.0,None,,0.3572712379973382,0.3572712379973382,Adjusting RT...,,1,Scanner,2,2019_Sep_06_1108,MID,3.1.5,60.02840616167781,,,,,,
Triangle,1500.0,0.0,24.0,24.0,24.0,,197.05844135900043,None,1500.0,199.09180155000286,None,None,199.09180155000286,None,1.63,25.0,200.6241940399996,None,1,1.0,200.6241940399996,None,You did not win or lose anything!,15.0,3.0,21.0,0.37,68.0,0.2821292834110757,[],83.33333333333333,21.0,3.0,None,,0.2755507760011824,0.2755507760011824,,,1,Scanner,2,2019_Sep_06_1108,MID,3.1.5,60.02840616167781,,,,,,
LgPun,3000.0,0.0,25.0,25.0,25.0,,202.6585142959993,None,3000.0,204.6922518540014,None,None,204.6922518540014,None,1.63,26.0,207.7253104080009,None,1,1.0,207.7253104080009,None,You did not lose $5.00!,15.0,4.0,22.0,0.37,69.23076923076923,0.2804763501102975,[1],83.33333333333333,21.0,3.0,None,,0.2523764839970681,0.2523764839970681,,,1,Scanner,2,2019_Sep_06_1108,MID,3.1.5,60.02840616167781,,,,,,
SmallPun,4000.0,0.0,26.0,26.0,26.0,,209.7586825660001,None,4000.0,211.78029170700032,None,None,211.78029170700032,None,1.63,27.0,215.8244829440009,None,1,1.0,215.8244829440009,None,You did not lose $0.20!,15.0,5.0,23.0,0.37,70.37037037037038,0.28198548110460825,"[1, 1]",83.33333333333333,21.0,3.0,None,,0.3091498390022025,0.3091498390022025,,,1,Scanner,2,2019_Sep_06_1108,MID,3.1.5,60.02840616167781,,,,,,
Triangle,2000.0,0.0,27.0,27.0,27.0,,217.85930195900073,None,2000.0,219.89315057900242,None,None,219.89315057900242,None,1.63,28.0,221.92557166100232,None,None,0.0,221.92557166100232,None,You did not win or lose anything!,15.0,3.0,23.0,0.37,67.85714285714286,0.28198548110460825,"[1, 1]",83.33333333333333,21.0,3.0,None,,0.3091498390022025,,,,1,Scanner,2,2019_Sep_06_1108,MID,3.1.5,60.02840616167781,,,,,,
SmallPun,1500.0,0.0,28.0,28.0,28.0,,223.95927162000226,None,1500.0,225.99343927399968,None,None,225.99343927399968,None,1.63,29.0,227.5264251500012,None,None,0.0,227.5264251500012,None,You lost $0.20!,14.8,5.0,24.0,0.34,65.51724137931035,0.28198548110460825,[],83.33333333333333,24.0,3.0,None,,0.3091498390022025,,Adjusting RT...,,1,Scanner,2,2019_Sep_06_1108,MID,3.1.5,60.02840616167781,,,,,,
SmallPun,2000.0,0.0,29.0,29.0,29.0,,229.5598276160017,None,2000.0,231.5833779790009,None,None,231.5833779790009,None,1.66,30.0,233.62686277600002,None,1,1.0,233.62686277600002,None,You did not lose $0.20!,14.8,5.0,25.0,0.34,66.66666666666666,0.2823310898493219,[1],83.33333333333333,24.0,3.0,None,,0.2888976559988805,0.2888976559988805,,,1,Scanner,2,2019_Sep_06_1108,MID,3.1.5,60.02840616167781,,,,,,
LgReward,1500.0,0.0,30.0,30.0,30.0,,235.67693436800255,None,1500.0,237.7006397610021,None,None,237.7006397610021,None,1.66,31.0,239.26030545200047,None,1,1.0,239.26030545200047,None,You won $5.00!,19.8,1.0,26.0,0.34,67.74193548387096,0.28238471699937473,"[1, 1]",83.33333333333333,24.0,3.0,None,,0.2834572600004321,0.2834572600004321,,,1,Scanner,2,2019_Sep_06_1108,MID,3.1.5,60.02840616167781,,,,,,
SmallReward,2500.0,0.0,31.0,31.0,31.0,,241.30249103000097,None,2500.0,243.34360781500072,None,None,243.34360781500072,None,1.66,32.0,245.88546155900258,None,None,0.0,245.88546155900258,None,You did not win $0.20!,19.8,2.0,27.0,0.31999999999999995,65.625,0.28238471699937473,[],66.66666666666666,27.0,3.0,1,0.12559404599960544,0.4455940459996054,,Adjusting RT...,,1,Scanner,2,2019_Sep_06_1108,MID,3.1.5,60.02840616167781,,,,,,
Triangle,1500.0,0.0,32.0,32.0,32.0,,247.9276634279995,None,1500.0,249.9524015900024,None,None,249.9524015900024,None,1.6800000000000002,33.0,251.49457395300126,None,1,1.0,251.49457395300126,None,You did not win or lose anything!,19.8,3.0,27.0,0.31999999999999995,66.66666666666666,0.2794145844993843,[],66.66666666666666,27.0,3.0,None,,0.217041801999585,0.217041801999585,,,1,Scanner,2,2019_Sep_06_1108,MID,3.1.5,60.02840616167781,,,,,,
SmallReward,1500.0,0.0,33.0,33.0,33.0,,253.53634839100053,None,1500.0,255.56953156900272,None,None,255.56953156900272,None,1.6800000000000002,34.0,257.11950205900206,None,1,1.0,257.11950205900206,None,You won $0.20!,20.0,2.0,28.0,0.31999999999999995,67.64705882352942,0.2797126828690639,[1],66.66666666666666,27.0,3.0,None,,0.2862708470020152,0.2862708470020152,,,1,Scanner,2,2019_Sep_06_1108,MID,3.1.5,60.02840616167781,,,,,,
LgReward,2000.0,0.0,34.0,34.0,34.0,,259.17094356600137,None,2000.0,261.2035516010001,None,None,261.2035516010001,None,1.6800000000000002,35.0,263.25366932500043,None,1,1.0,263.25366932500043,None,You won $5.00!,25.0,1.0,29.0,0.31999999999999995,68.57142857142857,0.2789719675827958,"[1, 1]",66.66666666666666,27.0,3.0,None,,0.26193551599862985,0.26193551599862985,,,1,Scanner,2,2019_Sep_06_1108,MID,3.1.5,60.02840616167781,,,,,,
Triangle,1500.0,0.0,35.0,35.0,35.0,,265.29519691899986,None,1500.0,267.3214498480011,None,None,267.3214498480011,None,1.6800000000000002,36.0,268.8619814490012,None,None,0.0,268.8619814490012,None,You did not win or lose anything!,25.0,3.0,29.0,0.31999999999999995,66.66666666666666,0.2789719675827958,"[1, 1]",66.66666666666666,27.0,3.0,1,0.0288809810008388,0.34888098100083875,,,,1,Scanner,2,2019_Sep_06_1108,MID,3.1.5,60.02840616167781,,,,,,
LgPun,4000.0,0.0,36.0,36.0,36.0,,270.89594915000265,None,4000.0,272.92165092300274,None,None,272.92165092300274,None,1.6800000000000002,37.0,276.957159632002,None,None,0.0,276.957159632002,None,You lost $5.00!,20.0,4.0,30.0,0.29999999999999993,64.86486486486487,0.2789719675827958,[],66.66666666666666,30.0,3.0,None,,0.34888098100083875,,Adjusting RT...,,1,Scanner,2,2019_Sep_06_1108,MID,3.1.5,60.02840616167781,,,,,,
Triangle,1500.0,0.0,37.0,37.0,37.0,,278.99650116200064,None,1500.0,281.0231102930011,None,None,281.0231102930011,None,1.7000000000000002,38.0,282.5638218060012,None,None,0.0,282.5638218060012,None,You did not win or lose anything!,20.0,3.0,30.0,0.29999999999999993,63.157894736842096,0.2789719675827958,[],66.66666666666666,30.0,3.0,None,,0.34888098100083875,,,,1,Scanner,2,2019_Sep_06_1108,MID,3.1.5,60.02840616167781,,,,,,
Triangle,3000.0,0.0,38.0,38.0,38.0,,284.59661971000236,None,3000.0,286.62342056200214,None,None,286.62342056200214,None,1.7000000000000002,39.0,289.6627402740014,None,None,0.0,289.6627402740014,None,You did not win or lose anything!,20.0,3.0,30.0,0.29999999999999993,61.53846153846154,0.2789719675827958,[],66.66666666666666,30.0,3.0,1,0.07131316299637548,0.3713131629963754,,,,1,Scanner,2,2019_Sep_06_1108,MID,3.1.5,60.02840616167781,,,,,,
SmallPun,1500.0,0.0,39.0,39.0,39.0,,291.6965539900011,None,1500.0,293.7253402640017,None,None,293.7253402640017,None,1.7000000000000002,40.0,295.25884309500185,None,None,0.0,295.25884309500185,None,You lost $0.20!,19.8,5.0,31.0,0.29999999999999993,60.0,0.2789719675827958,[0],66.66666666666666,30.0,3.0,1,0.05207069500465877,0.3520706950046587,,,,1,Scanner,2,2019_Sep_06_1108,MID,3.1.5,60.02840616167781,,,,,,
LgReward,3000.0,0.0,40.0,40.0,40.0,,297.30840186000205,None,3000.0,299.3425379500004,None,None,299.3425379500004,None,1.7000000000000002,41.0,302.3925825020014,None,None,0.0,302.3925825020014,None,You did not win $5.00!,19.8,1.0,32.0,0.29999999999999993,58.536585365853654,0.2789719675827958,"[0, 0]",66.66666666666666,30.0,3.0,1,0.02766936099942541,0.3276693609994253,,,,1,Scanner,2,2019_Sep_06_1108,MID,3.1.5,60.02840616167781,,,,,,
LgPun,3500.0,0.0,41.0,41.0,41.0,,304.4479067280008,None,3500.0,306.47696026000267,None,None,306.47696026000267,None,1.7000000000000002,42.0,310.0108904990011,None,1,1.0,310.0108904990011,None,You did not lose $5.00!,19.8,4.0,33.0,0.31999999999999995,59.523809523809526,0.2747238633195229,[],49.99999999999999,33.0,3.0,None,,0.17276936100097373,0.17276936100097373,Adjusting RT...,,1,Scanner,2,2019_Sep_06_1108,MID,3.1.5,60.02840616167781,,,,,,
Triangle,2500.0,0.0,42.0,42.0,42.0,,312.04814451700435,None,2500.0,314.0774334190028,None,None,314.0774334190028,None,1.6800000000000002,43.0,316.6119734010026,None,None,0.0,316.6119734010026,None,You did not win or lose anything!,19.8,3.0,33.0,0.31999999999999995,58.139534883720934,0.2747238633195229,[],49.99999999999999,33.0,3.0,1,0.07279585200012663,0.39279585200012657,,,,1,Scanner,2,2019_Sep_06_1108,MID,3.1.5,60.02840616167781,,,,,,
SmallReward,1500.0,0.0,43.0,43.0,43.0,,318.66152797200266,None,1500.0,320.69493440899896,None,None,320.69493440899896,None,1.6800000000000002,44.0,322.24434672799913,None,1,1.0,322.24434672799913,None,You won $0.20!,20.0,2.0,34.0,0.31999999999999995,59.09090909090909,0.2648992090380489,[1],49.99999999999999,33.0,3.0,1,0.05512178799835965,0.01928285200119717,0.01928285200119717,,,1,Scanner,2,2019_Sep_06_1108,MID,3.1.5,60.02840616167781,,,,,,
LgPun,1500.0,0.0,44.0,44.0,44.0,,324.28253143900287,None,1500.0,326.31225509800066,None,None,326.31225509800066,None,1.6800000000000002,45.0,327.845977175999,None,None,0.0,327.845977175999,None,You lost $5.00!,15.0,4.0,35.0,0.31999999999999995,57.77777777777778,0.2648992090380489,"[1, 0]",49.99999999999999,33.0,3.0,1,0.030222852001315918,0.3502228520013159,,,,1,Scanner,2,2019_Sep_06_1108,MID,3.1.5,60.02840616167781,,,,,,
SmallReward,4000.0,0.0,45.0,45.0,45.0,,329.89574132000047,None,4000.0,331.93052837600044,None,None,331.93052837600044,None,1.6800000000000002,46.0,335.9801286699985,None,None,0.0,335.9801286699985,None,You did not win $0.20!,15.0,2.0,36.0,0.35999999999999993,56.52173913043478,0.2648992090380489,[],33.33333333333333,36.0,3.0,1,0.04752781100251013,0.4075278110025101,,Adjusting RT...,,1,Scanner,2,2019_Sep_06_1108,MID,3.1.5,60.02840616167781,,,,,,
SmallPun,3500.0,0.0,46.0,46.0,46.0,,338.01403571800256,None,3500.0,340.04735665500266,None,None,340.04735665500266,None,1.64,47.0,343.58137105399874,None,1,1.0,343.58137105399874,None,You did not lose $0.20!,15.0,5.0,37.0,0.35999999999999993,57.44680851063831,0.2666583573700336,[1],33.33333333333333,36.0,3.0,None,,0.3123962140016374,0.3123962140016374,,,1,Scanner,2,2019_Sep_06_1108,MID,3.1.5,60.02840616167781,,,,,,
SmallPun,3000.0,0.0,47.0,47.0,47.0,,345.63394243300354,None,3000.0,347.6656238949981,None,None,347.6656238949981,None,1.64,48.0,350.69831710300423,None,1,1.0,350.69831710300423,None,You did not lose $0.20!,15.0,5.0,38.0,0.35999999999999993,58.33333333333334,0.2676500902495848,"[1, 1]",33.33333333333333,36.0,3.0,None,,0.2944268779974664,0.2944268779974664,,,1,Scanner,2,2019_Sep_06_1108,MID,3.1.5,60.02840616167781,,,,,,
LgReward,1500.0,0.0,48.0,48.0,48.0,,352.74879834200334,None,1500.0,354.78284035100296,None,None,354.78284035100296,None,1.64,49.0,356.3324744380043,None,None,0.0,356.3324744380043,None,You did not win $5.00!,15.0,1.0,39.0,0.38,57.14285714285714,0.2676500902495848,[],49.99999999999999,39.0,3.0,1,0.013234660000307484,0.3932346600003073,,Adjusting RT...,,1,Scanner,2,2019_Sep_06_1108,MID,3.1.5,60.02840616167781,,,,,,
SmallReward,2000.0,0.0,49.0,49.0,49.0,,358.38355206499915,None,2000.0,360.41752527900456,None,None,360.41752527900456,None,1.62,50.0,362.4672807269999,None,1,1.0,362.4672807269999,None,You won $0.20!,15.2,2.0,40.0,0.38,57.99999999999999,0.2689539140685219,[1],49.99999999999999,39.0,3.0,None,,0.3054609809987596,0.3054609809987596,,,1,Scanner,2,2019_Sep_06_1108,MID,3.1.5,60.02840616167781,,,,,,
,,,,,,,,,,,,,,,,,,,,,,,,,,,,,,,,,,,,,,,,1,Scanner,2,2019_Sep_06_1108,MID,3.1.5,60.02840616167781,,,,,,
Triangle,2000.0,0.0,0.0,0.0,0.0,TimeVersion8.csv,25.91877117600052,None,2000.0,27.9530387520008,None,None,27.9530387520008,None,1.61,1.0,29.991411643000898,None,None,0.0,29.991411643000898,None,You did not win or lose anything!,0.0,3.0,0.0,0.39,0.0,,[],0.0,0.0,3.0,None,,,,,,2,Scanner,1,2019_Sep_05_1113,MID,3.1.5,60.12717679516723,,,,,,
SmallReward,3500.0,0.0,1.0,1.0,1.0,,32.069320337001045,None,3500.0,34.091620133000106,None,None,34.091620133000106,None,1.61,2.0,37.64428498300003,None,1,1.0,37.64428498300003,None,You won $0.20!,0.2,2.0,1.0,0.39,50.0,0.31519896400095604,[1],0.0,0.0,3.0,None,,0.31519896400095604,0.31519896400095604,,,2,Scanner,1,2019_Sep_05_1113,MID,3.1.5,60.12717679516723,,,,,,
LgPun,2000.0,0.0,2.0,2.0,2.0,,39.68608869300078,None,2000.0,41.709549105000406,None,None,41.709549105000406,None,1.61,3.0,43.75293697300003,None,1,1.0,43.75293697300003,None,You did not lose $5.00!,0.2,4.0,2.0,0.39,66.66666666666666,0.31639048550005106,"[1, 1]",0.0,0.0,3.0,None,,0.317582006999146,0.317582006999146,,,2,Scanner,1,2019_Sep_05_1113,MID,3.1.5,60.12717679516723,,,,,,
SmallReward,1500.0,0.0,3.0,3.0,3.0,,45.793565838001086,None,1500.0,47.836592607000064,None,None,47.836592607000064,None,1.61,4.0,49.37811257100111,None,None,0.0,49.37811257100111,None,You did not win $0.20!,0.2,2.0,3.0,0.37,50.0,0.31639048550005106,[],66.66666666666666,3.0,3.0,1,0.04178232200138154,0.4117823220013816,,Adjusting RT...,,2,Scanner,1,2019_Sep_05_1113,MID,3.1.5,60.12717679516723,,,,,,
LgReward,4000.0,0.0,4.0,4.0,4.0,,51.45316504699986,None,4000.0,53.48721397000008,None,None,53.48721397000008,None,1.63,5.0,57.528668756000116,None,1,1.0,57.528668756000116,None,You won $5.00!,5.2,1.0,4.0,0.37,60.0,0.3139153389996257,[1],66.66666666666666,3.0,3.0,None,,0.3089650459987752,0.3089650459987752,,,2,Scanner,1,2019_Sep_05_1113,MID,3.1.5,60.12717679516723,,,,,,
LgPun,1500.0,0.0,5.0,5.0,5.0,,59.57185143599963,None,1500.0,61.595244939000615,None,None,61.595244939000615,None,1.63,6.0,63.138433834999894,None,None,0.0,63.138433834999894,None,You lost $5.00!,0.20000000000000015,4.0,5.0,0.37,50.0,0.3139153389996257,"[1, 0]",66.66666666666666,3.0,3.0,1,0.021510531998501392,0.3915105319985014,,,,2,Scanner,1,2019_Sep_05_1113,MID,3.1.5,60.12717679516723,,,,,,
Triangle,3500.0,0.0,6.0,6.0,6.0,,65.17169119100072,None,3500.0,67.19647324200014,None,None,67.19647324200014,None,1.63,7.0,70.73829572300018,None,None,0.0,70.73829572300018,None,You did not win or lose anything!,0.20000000000000015,3.0,5.0,0.37,42.857142857142854,0.3139153389996257,"[1, 0]",66.66666666666666,3.0,3.0,None,,0.3915105319985014,,,,2,Scanner,1,2019_Sep_05_1113,MID,3.1.5,60.12717679516723,,,,,,
LgPun,1500.0,0.0,7.0,7.0,7.0,,72.77186416299993,None,1500.0,74.79744734700034,None,None,74.79744734700034,None,1.63,8.0,76.33830425300039,None,1,1.0,76.33830425300039,None,You did not lose $5.00!,0.20000000000000015,4.0,6.0,0.35,50.0,0.306733533249826,[],66.66666666666666,6.0,3.0,None,,0.2851881160004268,0.2851881160004268,Adjusting RT...,,2,Scanner,1,2019_Sep_05_1113,MID,3.1.5,60.12717679516723,,,,,,
SmallReward,1500.0,0.0,8.0,8.0,8.0,,78.38200510500064,None,1500.0,80.43127930199991,None,None,80.43127930199991,None,1.65,9.0,81.98901277299956,None,None,0.0,81.98901277299956,None,You did not win $0.20!,0.20000000000000015,2.0,7.0,0.35,44.444444444444436,0.306733533249826,[0],66.66666666666666,6.0,3.0,1,-0.009932995999406558,0.3400670040005934,,,,2,Scanner,1,2019_Sep_05_1113,MID,3.1.5,60.12717679516723,,,,,,
SmallPun,2500.0,0.0,9.0,9.0,9.0,,84.02296844900047,None,2500.0,86.04872398100088,None,None,86.04872398100088,None,1.65,10.0,88.58976629900098,None,None,0.0,88.58976629900098,None,You lost $0.20!,1.6653345369377348e-16,5.0,8.0,0.35,40.0,0.306733533249826,"[0, 0]",66.66666666666666,6.0,3.0,1,-0.0027789170017058487,0.3472210829982941,,,,2,Scanner,1,2019_Sep_05_1113,MID,3.1.5,60.12717679516723,,,,,,
SmallPun,1500.0,0.0,10.0,10.0,10.0,,90.6227619679994,None,1500.0,92.6498614129996,None,None,92.6498614129996,None,1.65,11.0,94.19044763900094,None,1,1.0,94.19044763900094,None,You did not lose $0.20!,1.6653345369377348e-16,5.0,9.0,0.37,45.45454545454545,0.3063957951995689,[],49.99999999999999,9.0,3.0,None,,0.30504484299854084,0.30504484299854084,Adjusting RT...,,2,Scanner,1,2019_Sep_05_1113,MID,3.1.5,60.12717679516723,,,,,,
LgReward,3500.0,0.0,11.0,11.0,11.0,,96.23436425200087,None,3500.0,98.26710294199984,None,None,98.26710294199984,None,1.63,12.0,101.81719174200045,None,1,1.0,101.81719174200045,None,You won $5.00!,5.0,1.0,10.0,0.37,50.0,0.30639206099961785,[1],49.99999999999999,9.0,3.0,None,,0.3063733899998624,0.3063733899998624,,,2,Scanner,1,2019_Sep_05_1113,MID,3.1.5,60.12717679516723,,,,,,
LgPun,1500.0,0.0,12.0,12.0,12.0,,103.85784841299936,None,1500.0,105.88533955899948,None,None,105.88533955899948,None,1.63,13.0,107.42388157999994,None,1,1.0,107.42388157999994,None,You did not lose $5.00!,5.0,4.0,11.0,0.37,53.846153846153854,0.3078709167140395,"[1, 1]",49.99999999999999,9.0,3.0,None,,0.31674405100056896,0.31674405100056896,,,2,Scanner,1,2019_Sep_05_1113,MID,3.1.5,60.12717679516723,,,,,,
SmallPun,2000.0,0.0,13.0,13.0,13.0,,109.45706065000013,None,2000.0,111.48541594699965,None,None,111.48541594699965,None,1.63,14.0,113.5201532049996,None,1,1.0,113.5201532049996,None,You did not lose $0.20!,5.0,5.0,12.0,0.35,57.14285714285714,0.3060697253749822,[],66.66666666666666,12.0,3.0,None,,0.2934613860015816,0.2934613860015816,Adjusting RT...,,2,Scanner,1,2019_Sep_05_1113,MID,3.1.5,60.12717679516723,,,,,,
LgReward,1500.0,0.0,14.0,14.0,14.0,,115.5686656100006,None,1500.0,117.6030011389994,None,None,117.6030011389994,None,1.65,15.0,119.15237660300043,None,None,0.0,119.15237660300043,None,You did not win $5.00!,5.0,1.0,13.0,0.35,53.33333333333334,0.3060697253749822,[0],66.66666666666666,12.0,3.0,1,0.04695025599903602,0.396950255999036,,,,2,Scanner,1,2019_Sep_05_1113,MID,3.1.5,60.12717679516723,,,,,,
LgReward,1500.0,0.0,15.0,15.0,15.0,,121.20280234200071,None,1500.0,123.23735064799985,None,None,123.23735064799985,None,1.65,16.0,124.7867398239996,None,None,0.0,124.7867398239996,None,You did not win $5.00!,5.0,1.0,14.0,0.35,50.0,0.3060697253749822,"[0, 0]",66.66666666666666,12.0,3.0,None,,0.396950255999036,,,,2,Scanner,1,2019_Sep_05_1113,MID,3.1.5,60.12717679516723,,,,,,
SmallReward,2000.0,0.0,16.0,16.0,16.0,,126.83751215499979,None,2000.0,128.87106387200038,None,None,128.87106387200038,None,1.65,17.0,130.920354848,None,1,1.0,130.920354848,None,You won $0.20!,5.2,2.0,15.0,0.33,52.941176470588246,0.3026491351109952,[],66.66666666666666,15.0,3.0,None,,0.275284412999099,0.275284412999099,Adjusting RT...,,2,Scanner,1,2019_Sep_05_1113,MID,3.1.5,60.12717679516723,,,,,,
LgReward,2500.0,0.0,17.0,17.0,17.0,,132.97095439800069,None,2500.0,135.00490383599936,None,None,135.00490383599936,None,1.67,18.0,137.55483188700057,None,1,1.0,137.55483188700057,None,You won $5.00!,10.2,1.0,16.0,0.33,55.555555555555564,0.2976637526999184,[1],66.66666666666666,15.0,3.0,None,,0.25279531100022723,0.25279531100022723,,,2,Scanner,1,2019_Sep_05_1113,MID,3.1.5,60.12717679516723,,,,,,
LgReward,2000.0,0.0,18.0,18.0,18.0,,139.60541881599966,None,2000.0,141.6228625599997,None,None,141.6228625599997,None,1.67,19.0,143.67315668400082,None,1,1.0,143.67315668400082,None,You won $5.00!,15.2,1.0,17.0,0.33,57.894736842105274,0.2967367127272485,"[1, 1]",66.66666666666666,15.0,3.0,None,,0.2874663130005501,0.2874663130005501,,,2,Scanner,1,2019_Sep_05_1113,MID,3.1.5,60.12717679516723,,,,,,
SmallPun,1500.0,0.0,19.0,19.0,19.0,,145.7095253589996,None,1500.0,147.7399772360004,None,None,147.7399772360004,None,1.67,20.0,149.27392196000073,None,1,1.0,149.27392196000073,None,You did not lose $0.20!,15.2,5.0,18.0,0.30999999999999994,60.0,0.2939010192499154,[],66.66666666666666,18.0,3.0,None,,0.2627083909992507,0.2627083909992507,Adjusting RT...,,2,Scanner,1,2019_Sep_05_1113,MID,3.1.5,60.12717679516723,,,,,,
SmallReward,3000.0,0.0,20.0,20.0,20.0,,151.32353837600022,None,3000.0,153.3579018170003,None,None,153.3579018170003,None,1.69,21.0,156.40812382900003,None,None,0.0,156.40812382900003,None,You did not win $0.20!,15.2,2.0,19.0,0.30999999999999994,57.14285714285714,0.2939010192499154,[0],66.66666666666666,18.0,3.0,None,,0.2627083909992507,,,,2,Scanner,1,2019_Sep_05_1113,MID,3.1.5,60.12717679516723,,,,,,
Triangle,4000.0,0.0,21.0,21.0,21.0,,158.46079431200087,None,4000.0,160.49173854699984,None,None,160.49173854699984,None,1.69,22.0,164.52545924600054,None,None,0.0,164.52545924600054,None,You did not win or lose anything!,15.2,3.0,19.0,0.30999999999999994,54.54545454545454,0.2939010192499154,[0],66.66666666666666,18.0,3.0,1,0.012825207999412669,0.3228252079994126,,,,2,Scanner,1,2019_Sep_05_1113,MID,3.1.5,60.12717679516723,,,,,,
LgPun,2500.0,0.0,22.0,22.0,22.0,,166.57793335300084,None,2500.0,168.60979546400083,None,None,168.60979546400083,None,1.69,23.0,171.1428521480011,None,1,1.0,171.1428521480011,None,You did not lose $5.00!,15.2,4.0,20.0,0.30999999999999994,56.52173913043478,0.2903478650767703,"[0, 1]",66.66666666666666,18.0,3.0,None,,0.24771001499902925,0.24771001499902925,,,2,Scanner,1,2019_Sep_05_1113,MID,3.1.5,60.12717679516723,,,,,,
LgPun,2000.0,0.0,23.0,23.0,23.0,,173.19512070900055,None,2000.0,175.22705841599964,None,None,175.22705841599964,None,1.69,24.0,177.26119564700093,None,1,1.0,177.26119564700093,None,You did not lose $5.00!,15.2,4.0,21.0,0.2799999999999999,58.33333333333334,0.2894254839998861,[],83.33333333333333,21.0,3.0,None,,0.27743453000039153,0.27743453000039153,Adjusting RT...,,2,Scanner,1,2019_Sep_05_1113,MID,3.1.5,60.12717679516723,,,,,,
Triangle,1500.0,0.0,24.0,24.0,24.0,,179.29554007499974,None,1500.0,181.32773833099964,None,None,181.32773833099964,None,1.7200000000000002,25.0,182.861446885001,None,None,0.0,182.861446885001,None,You did not win or lose anything!,15.2,3.0,21.0,0.2799999999999999,56.00000000000001,0.2894254839998861,[],83.33333333333333,21.0,3.0,1,0.0017792569997254761,0.2817792569997254,,,,2,Scanner,1,2019_Sep_05_1113,MID,3.1.5,60.12717679516723,,,,,,
LgPun,3000.0,0.0,25.0,25.0,25.0,,184.91273998900036,None,3000.0,186.94524682100013,None,None,186.94524682100013,None,1.7200000000000002,26.0,189.97838536100065,None,None,0.0,189.97838536100065,None,You lost $5.00!,10.2,4.0,22.0,0.2799999999999999,53.846153846153854,0.2894254839998861,[0],83.33333333333333,21.0,3.0,1,0.015634989998943638,0.29563498999894355,,,,2,Scanner,1,2019_Sep_05_1113,MID,3.1.5,60.12717679516723,,,,,,
SmallPun,4000.0,0.0,26.0,26.0,26.0,,192.01325020500008,None,4000.0,194.04590597400056,None,None,194.04590597400056,None,1.7200000000000002,27.0,198.07958228800092,None,None,0.0,198.07958228800092,None,You lost $0.20!,10.0,5.0,23.0,0.2799999999999999,51.851851851851855,0.2894254839998861,"[0, 0]",83.33333333333333,21.0,3.0,1,0.004257186999893747,0.2842571869998937,,,,2,Scanner,1,2019_Sep_05_1113,MID,3.1.5,60.12717679516723,,,,,,
Triangle,2000.0,0.0,27.0,27.0,27.0,,200.113404754,None,2000.0,202.14708798500038,None,None,202.14708798500038,None,1.7200000000000002,28.0,204.1796556650006,None,None,0.0,204.1796556650006,None,You did not win or lose anything!,10.0,3.0,23.0,0.2799999999999999,50.0,0.2894254839998861,"[0, 0]",83.33333333333333,21.0,3.0,1,0.10833003699917754,0.3883300369991775,,,,2,Scanner,1,2019_Sep_05_1113,MID,3.1.5,60.12717679516723,,,,,,
SmallPun,1500.0,0.0,28.0,28.0,28.0,,206.230847158,None,1500.0,208.2646793180011,None,None,208.2646793180011,None,1.7200000000000002,29.0,209.7982015580001,None,None,0.0,209.7982015580001,None,You lost $0.20!,9.8,5.0,24.0,0.3199999999999999,48.27586206896552,0.2894254839998861,[],33.33333333333333,24.0,3.0,1,0.020003587998871808,0.3400035879988717,,Adjusting RT...,,2,Scanner,1,2019_Sep_05_1113,MID,3.1.5,60.12717679516723,,,,,,
SmallPun,2000.0,0.0,29.0,29.0,29.0,,211.8313984489996,None,2000.0,213.86505291899996,None,None,213.86505291899996,None,1.6800000000000002,30.0,215.89779924600043,None,None,0.0,215.89779924600043,None,You lost $0.20!,9.6,5.0,25.0,0.3199999999999999,46.66666666666666,0.2894254839998861,[0],33.33333333333333,24.0,3.0,1,0.017153319000499326,0.3371533190004992,,,,2,Scanner,1,2019_Sep_05_1113,MID,3.1.5,60.12717679516723,,,,,,
LgReward,1500.0,0.0,30.0,30.0,30.0,,217.94843494400087,None,1500.0,219.981576315,None,None,219.981576315,None,1.6800000000000002,31.0,221.53191675900047,None,1,1.0,221.53191675900047,None,You won $5.00!,14.6,1.0,26.0,0.3199999999999999,48.387096774193544,0.2866470589332797,"[0, 1]",33.33333333333333,24.0,3.0,None,,0.24774910800078945,0.24774910800078945,,,2,Scanner,1,2019_Sep_05_1113,MID,3.1.5,60.12717679516723,,,,,,
SmallReward,2500.0,0.0,31.0,31.0,31.0,,223.58197836100044,None,2500.0,225.6149589910001,None,None,225.6149589910001,None,1.6800000000000002,32.0,228.16547963999986,None,1,1.0,228.16547963999986,None,You won $0.20!,14.8,2.0,27.0,0.3599999999999999,50.0,0.284990407937471,[],33.33333333333333,27.0,3.0,None,,0.2601406430003408,0.2601406430003408,Adjusting RT...,,2,Scanner,1,2019_Sep_05_1113,MID,3.1.5,60.12717679516723,,,,,,
Triangle,1500.0,0.0,32.0,32.0,32.0,,230.19824083300045,None,1500.0,232.23231373099952,None,None,232.23231373099952,None,1.64,33.0,233.76521939099985,None,None,0.0,233.76521939099985,None,You did not win or lose anything!,14.8,3.0,27.0,0.3599999999999999,48.48484848484848,0.284990407937471,[],33.33333333333333,27.0,3.0,1,0.5800361959991278,0.9400361959991276,,,,2,Scanner,1,2019_Sep_05_1113,MID,3.1.5,60.12717679516723,,,,,,
SmallReward,1500.0,0.0,33.0,33.0,33.0,,235.83207354200024,None,1500.0,237.86568036800054,None,None,237.86568036800054,None,1.64,34.0,239.4158022440006,None,None,0.0,239.4158022440006,None,You did not win $0.20!,14.8,2.0,28.0,0.3599999999999999,47.058823529411754,0.284990407937471,[0],33.33333333333333,27.0,3.0,None,,0.9400361959991276,,,,2,Scanner,1,2019_Sep_05_1113,MID,3.1.5,60.12717679516723,,,,,,
LgReward,2000.0,0.0,34.0,34.0,34.0,,241.46563376099945,None,2000.0,243.49930797399972,None,None,243.49930797399972,None,1.64,35.0,245.5495677580002,None,1,1.0,245.5495677580002,None,You won $5.00!,19.8,1.0,29.0,0.3599999999999999,48.57142857142857,0.2831701285882873,"[0, 1]",33.33333333333333,27.0,3.0,None,,0.2540456590013491,0.2540456590013491,,,2,Scanner,1,2019_Sep_05_1113,MID,3.1.5,60.12717679516723,,,,,,
Triangle,1500.0,0.0,35.0,35.0,35.0,,247.58302243000068,None,1500.0,249.616709240001,None,None,249.616709240001,None,1.64,36.0,251.14991956499944,None,None,0.0,251.14991956499944,None,You did not win or lose anything!,19.8,3.0,29.0,0.3599999999999999,47.22222222222222,0.2831701285882873,"[0, 1]",33.33333333333333,27.0,3.0,None,,0.2540456590013491,,,,2,Scanner,1,2019_Sep_05_1113,MID,3.1.5,60.12717679516723,,,,,,
LgPun,4000.0,0.0,36.0,36.0,36.0,,253.2006784519999,None,4000.0,255.23425944300104,None,None,255.23425944300104,None,1.64,37.0,259.2670094839996,None,1,1.0,259.2670094839996,None,You did not lose $5.00!,19.8,4.0,30.0,0.33999999999999986,48.64864864864865,0.2820277348888946,[],66.66666666666666,30.0,3.0,None,,0.2626070419992175,0.2626070419992175,Adjusting RT...,,2,Scanner,1,2019_Sep_05_1113,MID,3.1.5,60.12717679516723,,,,,,
Triangle,1500.0,0.0,37.0,37.0,37.0,,261.3178658649995,None,1500.0,263.3516530300003,None,None,263.3516530300003,None,1.66,38.0,264.8840655040003,None,None,0.0,264.8840655040003,None,You did not win or lose anything!,19.8,3.0,30.0,0.33999999999999986,47.368421052631575,0.2820277348888946,[],66.66666666666666,30.0,3.0,1,0.04733280599975842,0.3873328059997583,,,,2,Scanner,1,2019_Sep_05_1113,MID,3.1.5,60.12717679516723,,,,,,
Triangle,3000.0,0.0,38.0,38.0,38.0,,266.91770975300096,None,3000.0,268.9390293110009,None,None,268.9390293110009,None,1.66,39.0,271.9849551200004,None,1,1.0,271.9849551200004,None,You did not win or lose anything!,19.8,3.0,30.0,0.33999999999999986,48.71794871794872,0.2816402301578867,[],66.66666666666666,30.0,3.0,None,,0.2746651449997444,0.2746651449997444,,,2,Scanner,1,2019_Sep_05_1113,MID,3.1.5,60.12717679516723,,,,,,
SmallPun,1500.0,0.0,39.0,39.0,39.0,,274.03518983099997,None,1500.0,276.068514255001,None,None,276.068514255001,None,1.66,40.0,277.6014635669999,None,None,0.0,277.6014635669999,None,You lost $0.20!,19.6,5.0,31.0,0.33999999999999986,47.5,0.2816402301578867,[0],66.66666666666666,30.0,3.0,None,,0.2746651449997444,,,,2,Scanner,1,2019_Sep_05_1113,MID,3.1.5,60.12717679516723,,,,,,
LgReward,3000.0,0.0,40.0,40.0,40.0,,279.651974978,None,3000.0,281.68615392900034,None,None,281.68615392900034,None,1.66,41.0,284.7257551470011,None,1,1.0,284.7257551470011,None,You won $5.00!,24.6,1.0,32.0,0.33999999999999986,48.78048780487804,0.27899563064993343,"[0, 1]",66.66666666666666,30.0,3.0,None,,0.2287482399988221,0.2287482399988221,,,2,Scanner,1,2019_Sep_05_1113,MID,3.1.5,60.12717679516723,,,,,,
LgPun,3500.0,0.0,41.0,41.0,41.0,,286.7688385849997,None,3500.0,288.79244950700013,None,None,288.79244950700013,None,1.66,42.0,292.33566427799997,None,None,0.0,292.33566427799997,None,You lost $5.00!,19.6,4.0,33.0,0.3599999999999999,47.61904761904761,0.27899563064993343,[],49.99999999999999,33.0,3.0,1,0.001976845000172034,0.3619768450001719,,Adjusting RT...,,2,Scanner,1,2019_Sep_05_1113,MID,3.1.5,60.12717679516723,,,,,,
Triangle,2500.0,0.0,42.0,42.0,42.0,,294.3690523349996,None,2500.0,296.39300159100094,None,None,296.39300159100094,None,1.64,43.0,298.9371716469996,None,1,1.0,298.9371716469996,None,You did not win or lose anything!,19.6,3.0,33.0,0.3599999999999999,48.83720930232558,0.27896409671423805,[],49.99999999999999,33.0,3.0,None,,0.2783334180003294,0.2783334180003294,,,2,Scanner,1,2019_Sep_05_1113,MID,3.1.5,60.12717679516723,,,,,,
SmallReward,1500.0,0.0,43.0,43.0,43.0,,301.0037342430005,None,1500.0,303.0269057509995,None,None,303.0269057509995,None,1.64,44.0,304.5770203230004,None,None,0.0,304.5770203230004,None,You did not win $0.20!,19.6,2.0,34.0,0.3599999999999999,47.72727272727273,0.27896409671423805,[0],49.99999999999999,33.0,3.0,None,,0.2783334180003294,,,,2,Scanner,1,2019_Sep_05_1113,MID,3.1.5,60.12717679516723,,,,,,
LgPun,1500.0,0.0,44.0,44.0,44.0,,306.62084960900035,None,1500.0,308.65398138000086,None,None,308.65398138000086,None,1.64,45.0,310.18802101599977,None,1,1.0,310.18802101599977,None,You did not lose $5.00!,19.6,4.0,35.0,0.3599999999999999,48.88888888888889,0.27885753672721464,"[0, 1]",49.99999999999999,33.0,3.0,None,,0.2766197769997234,0.2766197769997234,,,2,Scanner,1,2019_Sep_05_1113,MID,3.1.5,60.12717679516723,,,,,,
SmallReward,4000.0,0.0,45.0,45.0,45.0,,312.24620765799955,None,4000.0,314.2787279839995,None,None,314.2787279839995,None,1.64,46.0,318.32243718100113,None,1,1.0,318.32243718100113,None,You won $0.20!,19.8,2.0,36.0,0.3799999999999999,50.0,0.2804320080433725,[],49.99999999999999,36.0,3.0,None,,0.3150703769988468,0.3150703769988468,Adjusting RT...,,2,Scanner,1,2019_Sep_05_1113,MID,3.1.5,60.12717679516723,,,,,,
SmallPun,3500.0,0.0,46.0,46.0,46.0,,320.37160586400023,None,3500.0,322.3964418630003,None,None,322.3964418630003,None,1.62,47.0,325.93897487200053,None,1,1.0,325.93897487200053,None,You did not lose $0.20!,19.8,5.0,37.0,0.3799999999999999,51.06382978723404,0.2807332029581933,[1],49.99999999999999,36.0,3.0,None,,0.2876606859990716,0.2876606859990716,,,2,Scanner,1,2019_Sep_05_1113,MID,3.1.5,60.12717679516723,,,,,,
SmallPun,3000.0,0.0,47.0,47.0,47.0,,327.9720081590003,None,3000.0,329.9978304289998,None,None,329.9978304289998,None,1.62,48.0,333.0390434590008,None,1,1.0,333.0390434590008,None,You did not lose $0.20!,19.8,5.0,38.0,0.3799999999999999,52.08333333333334,0.2800878153198573,"[1, 1]",49.99999999999999,36.0,3.0,None,,0.2645985119997931,0.2645985119997931,,,2,Scanner,1,2019_Sep_05_1113,MID,3.1.5,60.12717679516723,,,,,,
LgReward,1500.0,0.0,48.0,48.0,48.0,,335.08275050300114,None,1500.0,337.1149399000005,None,None,337.1149399000005,None,1.62,49.0,338.6559642100001,None,1,1.0,338.6559642100001,None,You won $5.00!,24.8,1.0,39.0,0.3499999999999999,53.061224489795926,0.2824518041537046,[],83.33333333333333,39.0,3.0,None,,0.34155152499988617,0.34155152499988617,Adjusting RT...,,2,Scanner,1,2019_Sep_05_1113,MID,3.1.5,60.12717679516723,,,,,,
SmallReward,2000.0,0.0,49.0,49.0,49.0,,340.71673614999963,None,2000.0,342.7485162030007,None,None,342.7485162030007,None,1.65,50.0,344.80562457099956,None,None,0.0,344.80562457099956,None,You did not win $0.20!,24.8,2.0,40.0,0.3499999999999999,52.0,0.2824518041537046,[0],83.33333333333333,39.0,3.0,1,0.21222543099975155,0.5622254309997514,,,,2,Scanner,1,2019_Sep_05_1113,MID,3.1.5,60.12717679516723,,,,,,
,,,,,,,,,,,,,,,,,,,,,,,,,,,,,,,,,,,,,,,,2,Scanner,1,2019_Sep_05_1113,MID,3.1.5,60.12717679516723,,,,,,
SmallPun,1500.0,0.0,0.0,0.0,0.0,TimeVersion11.csv,29.546499125999613,None,1500.0,31.58123474300009,None,None,31.58123474300009,None,1.61,1.0,33.11367437500121,None,1,1.0,33.11367437500121,None,You did not lose $0.20!,0.0,5.0,1.0,0.39,100.0,0.3370301569993899,[1],0.0,0.0,3.0,None,,0.3370301569993899,0.3370301569993899,,,2,Scanner,2,2019_Sep_05_1119,MID,3.1.5,60.47688856952954,,,,,,
LgPun,1500.0,0.0,1.0,1.0,1.0,,35.1813427649995,None,1500.0,37.21480926699951,None,None,37.21480926699951,None,1.61,2.0,38.74789972100007,None,1,1.0,38.74789972100007,None,You did not lose $5.00!,0.0,4.0,2.0,0.39,100.0,0.29592093949941045,"[1, 1]",0.0,0.0,3.0,None,,0.25481172199943103,0.25481172199943103,,,2,Scanner,2,2019_Sep_05_1119,MID,3.1.5,60.47688856952954,,,,,,
Triangle,3500.0,0.0,2.0,2.0,2.0,,40.78133094700024,None,3500.0,42.815994590000635,None,None,42.815994590000635,None,1.61,3.0,46.3483824140003,None,1,1.0,46.3483824140003,None,You did not win or lose anything!,0.0,3.0,2.0,0.39,100.0,0.2967162753326799,"[1, 1]",0.0,0.0,3.0,None,,0.2983069469992188,0.2983069469992188,,,2,Scanner,2,2019_Sep_05_1119,MID,3.1.5,60.47688856952954,,,,,,
Triangle,1500.0,0.0,3.0,3.0,3.0,,48.38447185500081,None,1500.0,50.416304202999534,None,None,50.416304202999534,None,1.61,4.0,51.949834622000715,None,None,0.0,51.949834622000715,None,You did not win or lose anything!,0.0,3.0,2.0,0.39,75.0,0.2967162753326799,"[1, 1]",0.0,0.0,3.0,None,,0.2983069469992188,,,,2,Scanner,2,2019_Sep_05_1119,MID,3.1.5,60.47688856952954,,,,,,
LgReward,3500.0,0.0,4.0,4.0,4.0,,53.99957256400012,None,3500.0,56.03306601000077,None,None,56.03306601000077,None,1.61,5.0,59.583796397000704,None,1,1.0,59.583796397000704,None,You won $5.00!,5.0,1.0,3.0,0.34,80.0,0.2865147534994321,[],100.0,3.0,3.0,None,,0.2559101879996888,0.2559101879996888,Adjusting RT...,,2,Scanner,2,2019_Sep_05_1119,MID,3.1.5,60.47688856952954,,,,,,
SmallReward,3000.0,0.0,5.0,5.0,5.0,,61.65094871099973,None,3000.0,63.68498083400118,None,None,63.68498083400118,None,1.66,6.0,66.7349640020002,None,1,1.0,66.7349640020002,None,You won $0.20!,5.2,2.0,4.0,0.34,83.33333333333334,0.2827720905992465,[1],100.0,3.0,3.0,None,,0.2678014389985037,0.2678014389985037,,,2,Scanner,2,2019_Sep_05_1119,MID,3.1.5,60.47688856952954,,,,,,
SmallPun,1500.0,0.0,6.0,6.0,6.0,,68.76922687200022,None,1500.0,70.80231314100092,None,None,70.80231314100092,None,1.66,7.0,72.3356419419997,None,1,1.0,72.3356419419997,None,You did not lose $0.20!,5.2,5.0,5.0,0.34,85.71428571428571,0.2809873288327556,"[1, 1]",100.0,3.0,3.0,None,,0.27206352000030165,0.27206352000030165,,,2,Scanner,2,2019_Sep_05_1119,MID,3.1.5,60.47688856952954,,,,,,
SmallReward,1500.0,0.0,7.0,7.0,7.0,,74.38623541299967,None,1500.0,76.41959135100116,None,None,76.41959135100116,None,1.66,8.0,77.97007993900117,None,1,1.0,77.97007993900117,None,You won $0.20!,5.4,2.0,6.0,0.29000000000000004,87.5,0.2807973689996288,[],100.0,6.0,3.0,None,,0.27965761000086786,0.27965761000086786,Adjusting RT...,,2,Scanner,2,2019_Sep_05_1119,MID,3.1.5,60.47688856952954,,,,,,
LgReward,3000.0,0.0,8.0,8.0,8.0,,80.02001635600026,None,3000.0,82.05378821900013,None,None,82.05378821900013,None,1.71,9.0,85.10344919199997,None,None,0.0,85.10344919199997,None,You did not win $5.00!,5.4,1.0,7.0,0.29000000000000004,77.7777777777778,0.2807973689996288,[0],100.0,6.0,3.0,1,0.015808613999979567,0.3058086139999796,,,,2,Scanner,2,2019_Sep_05_1119,MID,3.1.5,60.47688856952954,,,,,,
LgPun,1500.0,0.0,9.0,9.0,9.0,,87.13723611600108,None,1500.0,89.17062378500124,None,None,89.17062378500124,None,1.71,10.0,90.70451079499979,None,None,0.0,90.70451079499979,None,You lost $5.00!,0.4000000000000004,4.0,8.0,0.29000000000000004,70.0,0.2807973689996288,"[0, 0]",100.0,6.0,3.0,1,0.1502215199998318,0.44022151999983183,,,,2,Scanner,2,2019_Sep_05_1119,MID,3.1.5,60.47688856952954,,,,,,
SmallReward,2000.0,0.0,10.0,10.0,10.0,,92.7542058809995,None,2000.0,94.78847474800024,None,None,94.78847474800024,None,1.71,11.0,96.8375959040004,None,None,0.0,96.8375959040004,None,You did not win $0.20!,0.4000000000000004,2.0,9.0,0.31000000000000005,63.63636363636363,0.2807973689996288,[],50.0,9.0,3.0,1,0.012488648999351426,0.3224886489993515,,Adjusting RT...,,2,Scanner,2,2019_Sep_05_1119,MID,3.1.5,60.47688856952954,,,,,,
LgReward,2000.0,0.0,11.0,11.0,11.0,,98.88794037899972,None,2000.0,100.921367758001,None,None,100.921367758001,None,1.69,12.0,102.97185802000057,None,1,1.0,102.97185802000057,None,You won $5.00!,5.4,1.0,10.0,0.31000000000000005,66.66666666666666,0.27842929074972744,[1],50.0,9.0,3.0,None,,0.26185274300041783,0.26185274300041783,,,2,Scanner,2,2019_Sep_05_1119,MID,3.1.5,60.47688856952954,,,,,,
Triangle,2500.0,0.0,12.0,12.0,12.0,,105.00519084699955,None,2500.0,107.03942901400114,None,None,107.03942901400114,None,1.69,13.0,109.57153021500015,None,1,1.0,109.57153021500015,None,You did not win or lose anything!,5.4,3.0,10.0,0.31000000000000005,69.23076923076923,0.2783975692218519,[1],50.0,9.0,3.0,None,,0.2781437969988474,0.2781437969988474,,,2,Scanner,2,2019_Sep_05_1119,MID,3.1.5,60.47688856952954,,,,,,
LgReward,1500.0,0.0,13.0,13.0,13.0,,111.63883342100051,None,1500.0,113.67239832100132,None,None,113.67239832100132,None,1.69,14.0,115.22233694100031,None,None,0.0,115.22233694100031,None,You did not win $5.00!,5.4,1.0,11.0,0.31000000000000005,64.28571428571429,0.2783975692218519,"[1, 0]",50.0,9.0,3.0,1,-0.004988986000171281,0.3050110139998288,,,,2,Scanner,2,2019_Sep_05_1119,MID,3.1.5,60.47688856952954,,,,,,
LgPun,2500.0,0.0,14.0,14.0,14.0,,117.272730273,None,2500.0,119.30665841100016,None,None,119.30665841100016,None,1.69,15.0,121.83985537599985,None,None,0.0,121.83985537599985,None,You lost $5.00!,0.4000000000000004,4.0,12.0,0.36000000000000004,60.0,0.2783975692218519,[],16.666666666666664,12.0,3.0,1,0.0404266320001625,0.40042663200016254,,Adjusting RT...,,2,Scanner,2,2019_Sep_05_1119,MID,3.1.5,60.47688856952954,,,,,,
SmallReward,1500.0,0.0,15.0,15.0,15.0,,123.90633112700016,None,1500.0,125.94046452099974,None,None,125.94046452099974,None,1.64,16.0,127.48958174700056,None,None,0.0,127.48958174700056,None,You did not win $0.20!,0.4000000000000004,2.0,13.0,0.36000000000000004,56.25,0.2783975692218519,[0],16.666666666666664,12.0,3.0,None,,0.40042663200016254,,,,2,Scanner,2,2019_Sep_05_1119,MID,3.1.5,60.47688856952954,,,,,,
LgReward,1500.0,0.0,16.0,16.0,16.0,,129.53946193000047,None,1500.0,131.57436511200103,None,None,131.57436511200103,None,1.64,17.0,133.12404348200107,None,None,0.0,133.12404348200107,None,You did not win $5.00!,0.4000000000000004,1.0,14.0,0.36000000000000004,52.941176470588246,0.2783975692218519,"[0, 0]",16.666666666666664,12.0,3.0,1,1.3894001313019547e-05,0.36001389400131306,,,,2,Scanner,2,2019_Sep_05_1119,MID,3.1.5,60.47688856952954,,,,,,
SmallPun,3500.0,0.0,17.0,17.0,17.0,,135.15743276899957,None,3500.0,137.17721879000055,None,None,137.17721879000055,None,1.64,18.0,140.7242294509997,None,1,1.0,140.7242294509997,None,You did not lose $0.20!,0.4000000000000004,5.0,15.0,0.4,55.555555555555564,0.2797059545997399,[],33.33333333333333,15.0,3.0,None,,0.2914814230007323,0.2914814230007323,Adjusting RT...,,2,Scanner,2,2019_Sep_05_1119,MID,3.1.5,60.47688856952954,,,,,,
LgPun,1500.0,0.0,18.0,18.0,18.0,,142.7744495629995,None,1500.0,144.8080509459996,None,None,144.8080509459996,None,1.6,19.0,146.3411593439996,None,None,0.0,146.3411593439996,None,You lost $5.00!,-4.6,4.0,16.0,0.4,52.631578947368425,0.2797059545997399,[0],33.33333333333333,15.0,3.0,1,0.044765541999368,0.444765541999368,,,,2,Scanner,2,2019_Sep_05_1119,MID,3.1.5,60.47688856952954,,,,,,
LgPun,3500.0,0.0,19.0,19.0,19.0,,148.37506660399958,None,3500.0,150.40877137200002,None,None,150.40877137200002,None,1.6,20.0,153.9416589600005,None,1,1.0,153.9416589600005,None,You did not lose $5.00!,-4.6,4.0,17.0,0.4,55.00000000000001,0.2759159539088035,"[0, 1]",33.33333333333333,15.0,3.0,None,,0.2380159469994396,0.2380159469994396,,,2,Scanner,2,2019_Sep_05_1119,MID,3.1.5,60.47688856952954,,,,,,
SmallReward,2500.0,0.0,20.0,20.0,20.0,,155.99156435900113,None,2500.0,158.0255033579997,None,None,158.0255033579997,None,1.6,21.0,160.57485625400113,None,None,0.0,160.57485625400113,None,You did not win $0.20!,-4.6,2.0,18.0,0.44,52.38095238095239,0.2759159539088035,[],33.33333333333333,18.0,3.0,1,0.060901581000507576,0.5009015810005075,,Adjusting RT...,,2,Scanner,2,2019_Sep_05_1119,MID,3.1.5,60.47688856952954,,,,,,
LgPun,2000.0,0.0,21.0,21.0,21.0,,162.6088049050013,None,2000.0,164.64244210000106,None,None,164.64244210000106,None,1.56,22.0,166.6761015789998,None,1,1.0,166.6761015789998,None,You did not lose $5.00!,-4.6,4.0,19.0,0.44,54.54545454545454,0.27538799108303164,[1],33.33333333333333,18.0,3.0,None,,0.2695803999995405,0.2695803999995405,,,2,Scanner,2,2019_Sep_05_1119,MID,3.1.5,60.47688856952954,,,,,,
Triangle,2000.0,0.0,22.0,22.0,22.0,,168.70900552199961,None,2000.0,170.73186177299974,None,None,170.73186177299974,None,1.56,23.0,172.775868267001,None,None,0.0,172.775868267001,None,You did not win or lose anything!,-4.6,3.0,19.0,0.44,52.17391304347826,0.27538799108303164,[1],33.33333333333333,18.0,3.0,None,,0.2695803999995405,,,,2,Scanner,2,2019_Sep_05_1119,MID,3.1.5,60.47688856952954,,,,,,
LgPun,4000.0,0.0,23.0,23.0,23.0,,174.80928279900036,None,4000.0,176.83339082600102,None,None,176.83339082600102,None,1.56,24.0,180.87632233499968,None,1,1.0,180.87632233499968,None,You did not lose $5.00!,-4.6,4.0,20.0,0.44,54.16666666666666,0.2735315710766512,"[1, 1]",33.33333333333333,18.0,3.0,None,,0.25125453100008605,0.25125453100008605,,,2,Scanner,2,2019_Sep_05_1119,MID,3.1.5,60.47688856952954,,,,,,
LgPun,2000.0,0.0,24.0,24.0,24.0,,182.91048895600036,None,2000.0,184.93399887499984,None,None,184.93399887499984,None,1.56,25.0,186.97674374400052,None,1,1.0,186.97674374400052,None,You did not lose $5.00!,-4.6,4.0,21.0,0.42,56.00000000000001,0.27620797321404617,[],66.66666666666666,21.0,3.0,None,,0.311001201000181,0.311001201000181,Adjusting RT...,,2,Scanner,2,2019_Sep_05_1119,MID,3.1.5,60.47688856952954,,,,,,
SmallPun,1500.0,0.0,25.0,25.0,25.0,,188.9942167339996,None,1500.0,191.01746565900064,None,None,191.01746565900064,None,1.58,26.0,192.56103921999969,None,1,1.0,192.56103921999969,None,You did not lose $0.20!,-4.6,5.0,22.0,0.42,57.69230769230769,0.28137281986649515,[1],66.66666666666666,21.0,3.0,None,,0.3536806730007811,0.3536806730007811,,,2,Scanner,2,2019_Sep_05_1119,MID,3.1.5,60.47688856952954,,,,,,
LgPun,3000.0,0.0,26.0,26.0,26.0,,194.59464419799954,None,3000.0,196.61844778799968,None,None,196.61844778799968,None,1.58,27.0,199.66120441000018,None,1,1.0,199.66120441000018,None,You did not lose $5.00!,-4.6,4.0,23.0,0.42,59.25925925925925,0.2799446269997361,"[1, 1]",66.66666666666666,21.0,3.0,None,,0.2585217339983501,0.2585217339983501,,,2,Scanner,2,2019_Sep_05_1119,MID,3.1.5,60.47688856952954,,,,,,
LgReward,2000.0,0.0,27.0,27.0,27.0,,201.71166261600047,None,2000.0,203.7360603260004,None,None,203.7360603260004,None,1.58,28.0,205.78601172500018,None,1,1.0,205.78601172500018,None,You won $5.00!,0.4000000000000004,1.0,24.0,0.37,60.71428571428571,0.278694662882117,[],100.0,24.0,3.0,None,,0.2586952370002109,0.2586952370002109,Adjusting RT...,,2,Scanner,2,2019_Sep_05_1119,MID,3.1.5,60.47688856952954,,,,,,
Triangle,1500.0,0.0,28.0,28.0,28.0,,207.82847026600032,None,1500.0,209.85412981400083,None,None,209.85412981400083,None,1.63,29.0,211.39588604200068,None,None,0.0,211.39588604200068,None,You did not win or lose anything!,0.4000000000000004,3.0,24.0,0.37,58.620689655172406,0.278694662882117,[],100.0,24.0,3.0,None,,0.2586952370002109,,,,2,Scanner,2,2019_Sep_05_1119,MID,3.1.5,60.47688856952954,,,,,,
Triangle,2000.0,0.0,29.0,29.0,29.0,,213.42861590800018,None,2000.0,215.4548432150004,None,None,215.4548432150004,None,1.63,30.0,217.49639836800088,None,None,0.0,217.49639836800088,None,You did not win or lose anything!,0.4000000000000004,3.0,24.0,0.37,56.66666666666666,0.278694662882117,[],100.0,24.0,3.0,1,0.017727761000060127,0.3877277610000601,,,,2,Scanner,2,2019_Sep_05_1119,MID,3.1.5,60.47688856952954,,,,,,
SmallReward,4000.0,0.0,30.0,30.0,30.0,,219.53977838799983,None,4000.0,221.57143813699986,None,None,221.57143813699986,None,1.63,31.0,225.62228914499974,None,1,1.0,225.62228914499974,None,You won $0.20!,0.6000000000000003,2.0,25.0,0.37,58.064516129032256,0.2777346786109168,[1],100.0,24.0,3.0,None,,0.2614149460005137,0.2614149460005137,,,2,Scanner,2,2019_Sep_05_1119,MID,3.1.5,60.47688856952954,,,,,,
Triangle,4000.0,0.0,31.0,31.0,31.0,,227.66381873399948,None,4000.0,229.68979341399967,None,None,229.68979341399967,None,1.63,32.0,233.7302920580005,None,None,0.0,233.7302920580005,None,You did not win or lose anything!,0.6000000000000003,3.0,25.0,0.37,56.25,0.2777346786109168,[1],100.0,24.0,3.0,None,,0.2614149460005137,,,,2,Scanner,2,2019_Sep_05_1119,MID,3.1.5,60.47688856952954,,,,,,
SmallReward,3500.0,0.0,32.0,32.0,32.0,,235.77285334800038,None,3500.0,237.80765162600073,None,None,237.80765162600073,None,1.63,33.0,241.35711117600115,None,1,1.0,241.35711117600115,None,You won $0.20!,0.8000000000000003,2.0,26.0,0.37,57.57575757575758,0.27525415015770704,"[1, 1]",100.0,24.0,3.0,None,,0.2306046379999316,0.2306046379999316,,,2,Scanner,2,2019_Sep_05_1119,MID,3.1.5,60.47688856952954,,,,,,
Triangle,1500.0,0.0,33.0,33.0,33.0,,243.39769245299976,None,1500.0,245.42502989800047,None,None,245.42502989800047,None,1.63,34.0,246.96415060199982,None,1,1.0,246.96415060199982,None,You did not win or lose anything!,0.8000000000000003,3.0,26.0,0.37,58.82352941176471,0.2767696114998216,"[1, 1]",100.0,24.0,3.0,None,,0.3055633769999986,0.3055633769999986,,,2,Scanner,2,2019_Sep_05_1119,MID,3.1.5,60.47688856952954,,,,,,
SmallReward,1500.0,0.0,34.0,34.0,34.0,,249.00783032199982,None,1500.0,251.02539413799968,None,None,251.02539413799968,None,1.63,35.0,252.5759767840009,None,None,0.0,252.5759767840009,None,You did not win $0.20!,0.8000000000000003,2.0,27.0,0.34,57.14285714285714,0.2767696114998216,[],83.33333333333333,27.0,3.0,1,0.02548415000092064,0.3654841500009206,,Adjusting RT...,,2,Scanner,2,2019_Sep_05_1119,MID,3.1.5,60.47688856952954,,,,,,
SmallPun,4000.0,0.0,35.0,35.0,35.0,,254.61482285400047,None,4000.0,256.6439784739996,None,None,256.6439784739996,None,1.66,36.0,260.676881845,None,1,1.0,260.676881845,None,You did not lose $0.20!,0.8000000000000003,5.0,28.0,0.34,58.33333333333334,0.2777250159521957,[1],83.33333333333333,27.0,3.0,None,,0.2968331049996777,0.2968331049996777,,,2,Scanner,2,2019_Sep_05_1119,MID,3.1.5,60.47688856952954,,,,,,
Triangle,1500.0,0.0,36.0,36.0,36.0,,262.7159260440003,None,1500.0,264.74507728200115,None,None,264.74507728200115,None,1.66,37.0,266.27775722700056,None,None,0.0,266.27775722700056,None,You did not win or lose anything!,0.8000000000000003,3.0,28.0,0.34,56.75675675675675,0.2777250159521957,[1],83.33333333333333,27.0,3.0,None,,0.2968331049996777,,,,2,Scanner,2,2019_Sep_05_1119,MID,3.1.5,60.47688856952954,,,,,,
SmallPun,2000.0,0.0,37.0,37.0,37.0,,268.31558457400024,None,2000.0,270.34490752199963,None,None,270.34490752199963,None,1.66,38.0,272.378576000001,None,1,1.0,272.378576000001,None,You did not lose $0.20!,0.8000000000000003,5.0,29.0,0.34,57.894736842105274,0.27633538859068224,"[1, 1]",83.33333333333333,27.0,3.0,None,,0.24715321399889945,0.24715321399889945,,,2,Scanner,2,2019_Sep_05_1119,MID,3.1.5,60.47688856952954,,,,,,
LgReward,2500.0,0.0,38.0,38.0,38.0,,274.4289497669997,None,2500.0,276.463076760001,None,None,276.463076760001,None,1.66,39.0,279.0123625190008,None,1,1.0,279.0123625190008,None,You won $5.00!,5.800000000000002,1.0,30.0,0.30999999999999994,58.97435897435898,0.2760319388258801,[],83.33333333333333,30.0,3.0,None,,0.2693560440002329,0.2693560440002329,Adjusting RT...,,2,Scanner,2,2019_Sep_05_1119,MID,3.1.5,60.47688856952954,,,,,,
LgReward,1500.0,0.0,39.0,39.0,39.0,,281.0626927459998,None,1500.0,283.09627836900114,None,None,283.09627836900114,None,1.69,40.0,284.6466911380012,None,None,0.0,284.6466911380012,None,You did not win $5.00!,5.800000000000002,1.0,31.0,0.30999999999999994,57.49999999999999,0.2760319388258801,[0],83.33333333333333,30.0,3.0,1,-0.0027292180002405075,0.30727078199975943,,,,2,Scanner,2,2019_Sep_05_1119,MID,3.1.5,60.47688856952954,,,,,,
LgPun,1500.0,0.0,40.0,40.0,40.0,,286.6997588940012,None,1500.0,288.73124247899983,None,None,288.73124247899983,None,1.69,41.0,290.2642217869997,None,None,0.0,290.2642217869997,None,You lost $5.00!,0.8000000000000007,4.0,32.0,0.30999999999999994,56.09756097560976,0.2760319388258801,"[0, 0]",83.33333333333333,30.0,3.0,1,0.08861910999985413,0.3986191099998541,,,,2,Scanner,2,2019_Sep_05_1119,MID,3.1.5,60.47688856952954,,,,,,
SmallPun,2000.0,0.0,41.0,41.0,41.0,,292.31408948900025,None,2000.0,294.3484776670012,None,None,294.3484776670012,None,1.69,42.0,296.38194042400033,None,None,0.0,296.38194042400033,None,You lost $0.20!,0.6000000000000008,5.0,33.0,0.33,54.76190476190477,0.2760319388258801,[],50.0,33.0,3.0,1,-0.007693102001212537,0.3223068979987874,,Adjusting RT...,,2,Scanner,2,2019_Sep_05_1119,MID,3.1.5,60.47688856952954,,,,,,
LgReward,1500.0,0.0,42.0,42.0,42.0,,298.43340447500117,None,1500.0,300.4654823359997,None,None,300.4654823359997,None,1.67,43.0,302.0158861330001,None,1,1.0,302.0158861330001,None,You won $5.00!,5.6000000000000005,1.0,34.0,0.33,55.8139534883721,0.2755612776248502,[1],50.0,33.0,3.0,None,,0.2647360700011632,0.2647360700011632,,,2,Scanner,2,2019_Sep_05_1119,MID,3.1.5,60.47688856952954,,,,,,
SmallPun,1500.0,0.0,43.0,43.0,43.0,,304.0514874029996,None,1500.0,306.08345481300057,None,None,306.08345481300057,None,1.67,44.0,307.61615721300035,None,None,0.0,307.61615721300035,None,You lost $0.20!,5.4,5.0,35.0,0.33,54.54545454545454,0.2755612776248502,"[1, 0]",50.0,33.0,3.0,None,,0.2647360700011632,,,,2,Scanner,2,2019_Sep_05_1119,MID,3.1.5,60.47688856952954,,,,,,
SmallReward,1500.0,0.0,44.0,44.0,44.0,,309.6662211319999,None,1500.0,311.70031651200037,None,None,311.70031651200037,None,1.67,45.0,313.2503569620003,None,1,1.0,313.2503569620003,None,You won $0.20!,5.6000000000000005,2.0,36.0,0.37,55.555555555555564,0.27578993103983523,[],33.33333333333333,36.0,3.0,None,,0.2812776129994745,0.2812776129994745,Adjusting RT...,,2,Scanner,2,2019_Sep_05_1119,MID,3.1.5,60.47688856952954,,,,,,
LgReward,4000.0,0.0,45.0,45.0,45.0,,315.31694013800006,None,4000.0,317.3511818320003,None,None,317.3511818320003,None,1.63,46.0,321.40123743200087,None,1,1.0,321.40123743200087,None,You won $5.00!,10.6,1.0,37.0,0.37,56.52173913043478,0.2755042682305989,[1],33.33333333333333,36.0,3.0,None,,0.2683626979996916,0.2683626979996916,,,2,Scanner,2,2019_Sep_05_1119,MID,3.1.5,60.47688856952954,,,,,,
Triangle,3000.0,0.0,46.0,46.0,46.0,,323.4356365500007,None,3000.0,325.46928415600087,None,None,325.46928415600087,None,1.63,47.0,328.50201818000096,None,1,1.0,328.50201818000096,None,You did not win or lose anything!,10.6,3.0,37.0,0.37,57.44680851063831,0.2775829735923994,[1],33.33333333333333,36.0,3.0,None,,0.33162931299921183,0.33162931299921183,,,2,Scanner,2,2019_Sep_05_1119,MID,3.1.5,60.47688856952954,,,,,,
SmallPun,3000.0,0.0,47.0,47.0,47.0,,330.5358908270009,None,3000.0,332.57018623400114,None,None,332.57018623400114,None,1.63,48.0,335.60373140199954,None,None,0.0,335.60373140199954,None,You lost $0.20!,10.400000000000002,5.0,38.0,0.37,56.25,0.2775829735923994,"[1, 0]",33.33333333333333,36.0,3.0,None,,0.33162931299921183,,,,2,Scanner,2,2019_Sep_05_1119,MID,3.1.5,60.47688856952954,,,,,,
SmallPun,2500.0,0.0,48.0,48.0,48.0,,337.63710712600005,None,2500.0,339.6708866910012,None,None,339.6708866910012,None,1.63,49.0,342.2043663580007,None,1,1.0,342.2043663580007,None,You did not lose $0.20!,10.400000000000002,5.0,39.0,0.3499999999999999,57.14285714285714,0.2780744799998241,[],66.66666666666666,39.0,3.0,None,,0.2913451530002931,0.2913451530002931,Adjusting RT...,,2,Scanner,2,2019_Sep_05_1119,MID,3.1.5,60.47688856952954,,,,,,
SmallReward,2000.0,0.0,49.0,49.0,49.0,,344.2541502910008,None,2000.0,346.2872388920005,None,None,346.2872388920005,None,1.65,50.0,348.33791667100013,None,1,1.0,348.33791667100013,None,You won $0.20!,10.6,2.0,40.0,0.3499999999999999,57.99999999999999,0.27868553858601885,[1],66.66666666666666,39.0,3.0,None,,0.2957951789994695,0.2957951789994695,,,2,Scanner,2,2019_Sep_05_1119,MID,3.1.5,60.47688856952954,,,,,,
,,,,,,,,,,,,,,,,,,,,,,,,,,,,,,,,,,,,,,,,2,Scanner,2,2019_Sep_05_1119,MID,3.1.5,60.47688856952954,,,,,,
Triangle,2000.0,0.0,0.0,0.0,0.0,TimeVersion9.csv,42.63759108600061,None,2000.0,44.671316189000216,None,None,44.671316189000216,None,1.71,1.0,46.714178679001634,None,None,0.0,46.714178679001634,None,You did not win or lose anything!,0.0,3.0,0.0,0.2899999999999999,0.0,,[],0.0,0.0,3.0,1,0.03391280000505503,0.32391280000505496,,,,3,Scanner,1,2019_Sep_07_1130,MID,3.1.5,60.175054770417404,,,,,,
Triangle,1500.0,0.0,1.0,1.0,1.0,,48.78141031999985,None,1500.0,50.80626814900461,None,None,50.80626814900461,None,1.71,2.0,52.34794268800032,None,None,0.0,52.34794268800032,None,You did not win or lose anything!,0.0,3.0,0.0,0.2899999999999999,0.0,,[],0.0,0.0,3.0,1,0.022302254998066928,0.31230225499806685,,,,3,Scanner,1,2019_Sep_07_1130,MID,3.1.5,60.175054770417404,,,,,,
LgPun,2500.0,0.0,2.0,2.0,2.0,,54.36501984300412,None,2500.0,56.38996290700016,None,1,56.38996290700016,None,1.71,3.0,58.931562101002775,None,None,0.0,58.931562101002775,None,You lost $5.00!,-5.0,4.0,1.0,0.2899999999999999,0.0,,[0],0.0,0.0,3.0,None,,0.31230225499806685,,,0.3294604690017877,3,Scanner,1,2019_Sep_07_1130,MID,3.1.5,60.175054770417404,,,,,,
Triangle,1500.0,0.0,3.0,3.0,3.0,,60.96517866800423,None,1500.0,62.99116935799975,None,None,62.99116935799975,None,1.71,4.0,64.53184263900039,None,None,0.0,64.53184263900039,None,You did not win or lose anything!,-5.0,3.0,1.0,0.2899999999999999,0.0,,[0],0.0,0.0,3.0,1,-0.008144729996274691,0.28185527000372523,,,,3,Scanner,1,2019_Sep_07_1130,MID,3.1.5,60.175054770417404,,,,,,
LgReward,1500.0,0.0,4.0,4.0,4.0,,66.59140301200387,None,1500.0,68.62481251999998,None,None,68.62481251999998,None,1.71,5.0,70.18306922500051,None,1,1.0,70.18306922500051,None,You won $5.00!,0.0,1.0,2.0,0.2899999999999999,20.0,0.2553605749999406,"[0, 1]",0.0,0.0,3.0,None,,0.2553605749999406,0.2553605749999406,,,3,Scanner,1,2019_Sep_07_1130,MID,3.1.5,60.175054770417404,,,,,,
SmallPun,1500.0,0.0,5.0,5.0,5.0,,72.23291494700244,None,1500.0,74.25901143100054,None,None,74.25901143100054,None,1.71,6.0,75.79956147800112,None,None,0.0,75.79956147800112,None,You lost $0.20!,-0.2,5.0,3.0,0.3299999999999999,16.666666666666664,0.2553605749999406,[],33.33333333333333,3.0,3.0,1,0.20617430400307055,0.5361743040030704,,Adjusting RT...,,3,Scanner,1,2019_Sep_07_1130,MID,3.1.5,60.175054770417404,,,,,,
LgPun,4000.0,0.0,6.0,6.0,6.0,,77.833607270004,None,4000.0,79.85992947400518,None,None,79.85992947400518,None,1.6700000000000002,7.0,83.8944396320003,None,1,1.0,83.8944396320003,None,You did not lose $5.00!,-0.2,4.0,4.0,0.3299999999999999,28.57142857142857,0.2616829400030838,[1],33.33333333333333,3.0,3.0,None,,0.268005305006227,0.268005305006227,,,3,Scanner,1,2019_Sep_07_1130,MID,3.1.5,60.175054770417404,,,,,,
Triangle,3500.0,0.0,7.0,7.0,7.0,,85.95024146500509,None,3500.0,87.97746048399858,None,None,87.97746048399858,None,1.6700000000000002,8.0,91.51190200199926,None,1,1.0,91.51190200199926,None,You did not win or lose anything!,-0.2,3.0,4.0,0.3299999999999999,37.5,0.2676073320011104,[1],33.33333333333333,3.0,3.0,None,,0.2794561159971636,0.2794561159971636,,,3,Scanner,1,2019_Sep_07_1130,MID,3.1.5,60.175054770417404,,,,,,
SmallReward,2500.0,0.0,8.0,8.0,8.0,,93.58419859200512,None,2500.0,95.61163195800327,None,None,95.61163195800327,None,1.6700000000000002,9.0,98.16200029500031,None,1,1.0,98.16200029500031,None,You won $0.20!,0.0,2.0,5.0,0.3299999999999999,44.444444444444436,0.26631596725201234,"[1, 1]",33.33333333333333,3.0,3.0,None,,0.2624418730047182,0.2624418730047182,,,3,Scanner,1,2019_Sep_07_1130,MID,3.1.5,60.175054770417404,,,,,,
LgPun,2000.0,0.0,9.0,9.0,9.0,,100.21799984099924,None,2000.0,102.24593657199877,None,None,102.24593657199877,None,1.6700000000000002,10.0,104.279646752002,None,1,1.0,104.279646752002,None,You did not lose $5.00!,0.0,4.0,6.0,0.3099999999999999,50.0,0.2670127436023904,[],66.66666666666666,6.0,3.0,None,,0.26979984900390264,0.26979984900390264,Adjusting RT...,,3,Scanner,1,2019_Sep_07_1130,MID,3.1.5,60.175054770417404,,,,,,
SmallPun,1500.0,0.0,10.0,10.0,10.0,,106.31857088000106,None,1500.0,108.34782080200242,None,None,108.34782080200242,None,1.6900000000000002,11.0,109.88489979800215,None,None,0.0,109.88489979800215,None,You lost $0.20!,-0.2,5.0,7.0,0.3099999999999999,45.45454545454545,0.2670127436023904,[0],66.66666666666666,6.0,3.0,1,0.028025925996189468,0.33802592599618936,,,,3,Scanner,1,2019_Sep_07_1130,MID,3.1.5,60.175054770417404,,,,,,
SmallReward,3000.0,0.0,11.0,11.0,11.0,,111.94786722300341,None,3000.0,113.98112394100464,None,None,113.98112394100464,None,1.6900000000000002,12.0,117.03092109499994,None,1,1.0,117.03092109499994,None,You won $0.20!,0.0,2.0,8.0,0.3099999999999999,50.0,0.2647429991678412,"[0, 1]",66.66666666666666,6.0,3.0,None,,0.2533942769950954,0.2533942769950954,,,3,Scanner,1,2019_Sep_07_1130,MID,3.1.5,60.175054770417404,,,,,,
LgPun,1500.0,0.0,12.0,12.0,12.0,,119.08545827399941,None,1500.0,121.11564821900538,None,None,121.11564821900538,None,1.6900000000000002,13.0,122.64924555000471,None,1,1.0,122.64924555000471,None,You did not lose $5.00!,0.0,4.0,9.0,0.2799999999999999,53.846153846153854,0.2638042185717495,[],83.33333333333333,9.0,3.0,None,,0.2581715349951992,0.2581715349951992,Adjusting RT...,,3,Scanner,1,2019_Sep_07_1130,MID,3.1.5,60.175054770417404,,,,,,
SmallReward,1500.0,0.0,13.0,13.0,13.0,,124.71485591099918,None,1500.0,126.7493719990016,None,None,126.7493719990016,None,1.7200000000000002,14.0,128.29988832199888,None,None,0.0,128.29988832199888,None,You did not win $0.20!,0.0,2.0,10.0,0.2799999999999999,50.0,0.2638042185717495,[0],83.33333333333333,9.0,3.0,1,0.027041244000429288,0.3070412440004292,,,,3,Scanner,1,2019_Sep_07_1130,MID,3.1.5,60.175054770417404,,,,,,
SmallReward,2000.0,0.0,14.0,14.0,14.0,,130.35117398500006,None,2000.0,132.38363614300033,None,None,132.38363614300033,None,1.7200000000000002,15.0,134.43302361600215,None,1,1.0,134.43302361600215,None,You won $0.20!,0.2,2.0,11.0,0.2799999999999999,53.33333333333334,0.2621330986248722,"[0, 1]",83.33333333333333,9.0,3.0,None,,0.25043525899673114,0.25043525899673114,,,3,Scanner,1,2019_Sep_07_1130,MID,3.1.5,60.175054770417404,,,,,,
LgPun,2000.0,0.0,15.0,15.0,15.0,,136.46769698100252,None,2000.0,138.50071174299956,None,None,138.50071174299956,None,1.7200000000000002,16.0,140.53468337000228,None,1,1.0,140.53468337000228,None,You did not lose $5.00!,0.2,4.0,12.0,0.2599999999999999,56.25,0.2582021465552518,[],66.66666666666666,12.0,3.0,None,,0.2267545299982885,0.2267545299982885,Adjusting RT...,,3,Scanner,1,2019_Sep_07_1130,MID,3.1.5,60.175054770417404,,,,,,
Triangle,2500.0,0.0,16.0,16.0,16.0,,142.5843022830013,None,2500.0,144.61866438900327,None,None,144.61866438900327,None,1.7400000000000002,17.0,147.15148187299928,None,1,1.0,147.15148187299928,None,You did not win or lose anything!,0.2,3.0,12.0,0.2599999999999999,58.82352941176471,0.2555645211992669,[],66.66666666666666,12.0,3.0,None,,0.2318258929954027,0.2318258929954027,,,3,Scanner,1,2019_Sep_07_1130,MID,3.1.5,60.175054770417404,,,,,,
LgPun,1500.0,0.0,17.0,17.0,17.0,,149.2044350990036,None,1500.0,151.23629896200148,None,None,151.23629896200148,None,1.7400000000000002,18.0,152.7689621690006,None,None,0.0,152.7689621690006,None,You lost $5.00!,-4.8,4.0,13.0,0.2599999999999999,55.555555555555564,0.2555645211992669,[0],66.66666666666666,12.0,3.0,1,0.015414230001624675,0.27541423000162457,,,,3,Scanner,1,2019_Sep_07_1130,MID,3.1.5,60.175054770417404,,,,,,
LgReward,3500.0,0.0,18.0,18.0,18.0,,154.83595958800288,None,3500.0,156.86993126100427,None,None,156.86993126100427,None,1.7400000000000002,19.0,160.41969724099908,None,None,0.0,160.41969724099908,None,You did not win $5.00!,-4.8,1.0,14.0,0.2599999999999999,52.631578947368425,0.2555645211992669,"[0, 0]",66.66666666666666,12.0,3.0,1,-0.0002940839985967614,0.25970591600140314,,,,3,Scanner,1,2019_Sep_07_1130,MID,3.1.5,60.175054770417404,,,,,,
LgReward,1500.0,0.0,19.0,19.0,19.0,,162.4704131210019,None,1500.0,164.504623189001,None,None,164.504623189001,None,1.7400000000000002,20.0,166.05403877900244,None,None,0.0,166.05403877900244,None,You did not win $5.00!,-4.8,1.0,15.0,0.2999999999999999,50.0,0.2555645211992669,[],33.33333333333333,15.0,3.0,1,0.035135975005687214,0.3351359750056871,,Adjusting RT...,,3,Scanner,1,2019_Sep_07_1130,MID,3.1.5,60.175054770417404,,,,,,
LgPun,3000.0,0.0,20.0,20.0,20.0,,168.08911533599894,None,3000.0,170.12084717299877,None,None,170.12084717299877,None,1.7000000000000002,21.0,173.15502440900312,None,1,1.0,173.15502440900312,None,You did not lose $5.00!,-4.8,4.0,16.0,0.2999999999999999,52.38095238095239,0.25618537036313105,[1],33.33333333333333,15.0,3.0,None,,0.2623938620017725,0.2623938620017725,,,3,Scanner,1,2019_Sep_07_1130,MID,3.1.5,60.175054770417404,,,,,,
SmallPun,2000.0,0.0,21.0,21.0,21.0,,175.18958300100346,None,2000.0,177.22257032600464,None,None,177.22257032600464,None,1.7000000000000002,22.0,179.2561343250054,None,None,0.0,179.2561343250054,None,You lost $0.20!,-5.0,5.0,17.0,0.2999999999999999,50.0,0.25618537036313105,"[1, 0]",33.33333333333333,15.0,3.0,None,,0.2623938620017725,,,,3,Scanner,1,2019_Sep_07_1130,MID,3.1.5,60.175054770417404,,,,,,
SmallReward,3500.0,0.0,22.0,22.0,22.0,,181.30653857000286,None,3500.0,183.3401834780016,None,None,183.3401834780016,None,1.7000000000000002,23.0,186.89055193700187,None,None,0.0,186.89055193700187,None,You did not win $0.20!,-5.0,2.0,18.0,0.3499999999999999,47.82608695652174,0.25618537036313105,[],16.666666666666664,18.0,3.0,1,-0.0028404659969965,0.34715953400300337,,Adjusting RT...,,3,Scanner,1,2019_Sep_07_1130,MID,3.1.5,60.175054770417404,,,,,,
LgReward,2500.0,0.0,23.0,23.0,23.0,,188.9396095949996,None,2500.0,190.97393050500253,None,None,190.97393050500253,None,1.65,24.0,193.52388837100446,None,None,0.0,193.52388837100446,None,You did not win $5.00!,-5.0,1.0,19.0,0.3499999999999999,45.83333333333333,0.25618537036313105,[0],16.666666666666664,18.0,3.0,1,-0.009128860001510477,0.3408711399984894,,,,3,Scanner,1,2019_Sep_07_1130,MID,3.1.5,60.175054770417404,,,,,,
SmallReward,4000.0,0.0,24.0,24.0,24.0,,195.5744662770012,None,4000.0,197.6076709900008,None,None,197.6076709900008,None,1.65,25.0,201.65702631800377,None,1,1.0,201.65702631800377,None,You won $0.20!,-4.8,2.0,20.0,0.3499999999999999,48.0,0.25778659299976425,"[0, 1]",16.666666666666664,18.0,3.0,None,,0.2754000420027296,0.2754000420027296,,,3,Scanner,1,2019_Sep_07_1130,MID,3.1.5,60.175054770417404,,,,,,
SmallPun,4000.0,0.0,25.0,25.0,25.0,,203.69175794500188,None,4000.0,205.72536742300144,None,None,205.72536742300144,None,1.65,26.0,209.75861697300567,None,1,1.0,209.75861697300567,None,You did not lose $0.20!,-4.8,5.0,21.0,0.3699999999999999,50.0,0.2579415813843997,[],49.99999999999999,21.0,3.0,None,,0.2598014420000254,0.2598014420000254,Adjusting RT...,,3,Scanner,1,2019_Sep_07_1130,MID,3.1.5,60.175054770417404,,,,,,
LgReward,2000.0,0.0,26.0,26.0,26.0,,211.8079569469992,None,2000.0,213.8425945470008,None,None,213.8425945470008,None,1.63,27.0,215.90836185300574,None,1,1.0,215.90836185300574,None,You won $5.00!,0.20000000000000015,1.0,22.0,0.3699999999999999,51.851851851851855,0.2607387131429277,[1],49.99999999999999,21.0,3.0,None,,0.29710142600379186,0.29710142600379186,,,3,Scanner,1,2019_Sep_07_1130,MID,3.1.5,60.175054770417404,,,,,,
LgReward,3000.0,0.0,27.0,27.0,27.0,,217.95954659400013,None,3000.0,219.9924951260036,None,None,219.9924951260036,None,1.63,28.0,223.04293608000444,None,1,1.0,223.04293608000444,None,You won $5.00!,5.2,1.0,23.0,0.3699999999999999,53.57142857142857,0.2601885388668355,"[1, 1]",49.99999999999999,21.0,3.0,None,,0.2524860990015441,0.2524860990015441,,,3,Scanner,1,2019_Sep_07_1130,MID,3.1.5,60.175054770417404,,,,,,
Triangle,4000.0,0.0,28.0,28.0,28.0,,225.07640383300168,None,4000.0,227.11025599900313,None,None,227.11025599900313,None,1.63,29.0,231.1425454170021,None,None,0.0,231.1425454170021,None,You did not win or lose anything!,5.2,3.0,23.0,0.3699999999999999,51.72413793103448,0.2601885388668355,"[1, 1]",49.99999999999999,21.0,3.0,1,0.04116765900107566,0.4111676590010756,,,,3,Scanner,1,2019_Sep_07_1130,MID,3.1.5,60.175054770417404,,,,,,
LgPun,1500.0,0.0,29.0,29.0,29.0,,233.17677828999882,None,1500.0,235.21000985400315,None,None,235.21000985400315,None,1.63,30.0,236.7434276260028,None,1,1.0,236.7434276260028,None,You did not lose $5.00!,5.2,4.0,24.0,0.33999999999999986,53.33333333333334,0.2585444366254705,[],83.33333333333333,24.0,3.0,None,,0.2338829030049965,0.2338829030049965,Adjusting RT...,,3,Scanner,1,2019_Sep_07_1130,MID,3.1.5,60.175054770417404,,,,,,
SmallReward,1500.0,0.0,30.0,30.0,30.0,,238.7940900410031,None,1500.0,240.82739864299947,None,None,240.82739864299947,None,1.66,31.0,242.37755136600026,None,None,0.0,242.37755136600026,None,You did not win $0.20!,5.2,2.0,25.0,0.33999999999999986,51.612903225806456,0.2585444366254705,[0],83.33333333333333,24.0,3.0,1,0.2379449820000445,0.5779449820000444,,,,3,Scanner,1,2019_Sep_07_1130,MID,3.1.5,60.175054770417404,,,,,,
LgReward,1500.0,0.0,31.0,31.0,31.0,,244.4272218760016,None,1500.0,246.46148413800256,None,1,246.46148413800256,None,1.66,32.0,248.015098503005,None,None,0.0,248.015098503005,None,You did not win $5.00!,5.2,1.0,26.0,0.33999999999999986,50.0,0.2585444366254705,"[0, 0]",83.33333333333333,24.0,3.0,None,,0.5779449820000444,,,0.2838224799997988,3,Scanner,1,2019_Sep_07_1130,MID,3.1.5,60.175054770417404,,,,,,
LgReward,4000.0,0.0,32.0,32.0,32.0,,250.07807205300202,None,4000.0,252.11127230800045,None,None,252.11127230800045,None,1.66,33.0,256.16543776300387,None,1,1.0,256.16543776300387,None,You won $5.00!,10.2,1.0,27.0,0.31999999999999984,51.51515151515152,0.26045350005904977,[],66.66666666666666,27.0,3.0,None,,0.2909985149963177,0.2909985149963177,Adjusting RT...,,3,Scanner,1,2019_Sep_07_1130,MID,3.1.5,60.175054770417404,,,,,,
SmallPun,3500.0,0.0,33.0,33.0,33.0,,258.211814979004,None,3500.0,260.24581964100065,None,None,260.24581964100065,None,1.6800000000000002,34.0,263.7791654470056,None,None,0.0,263.7791654470056,None,You lost $0.20!,10.0,5.0,28.0,0.31999999999999984,50.0,0.26045350005904977,[0],66.66666666666666,27.0,3.0,None,,0.2909985149963177,,,,3,Scanner,1,2019_Sep_07_1130,MID,3.1.5,60.175054770417404,,,,,,
Triangle,1500.0,0.0,34.0,34.0,34.0,,265.81253411299986,None,1500.0,267.8454477730047,None,None,267.8454477730047,None,1.6800000000000002,35.0,269.37857475200144,None,None,0.0,269.37857475200144,None,You did not win or lose anything!,10.0,3.0,28.0,0.31999999999999984,48.57142857142857,0.26045350005904977,[0],66.66666666666666,27.0,3.0,None,,0.2909985149963177,,,,3,Scanner,1,2019_Sep_07_1130,MID,3.1.5,60.175054770417404,,,,,,
Triangle,2000.0,0.0,35.0,35.0,35.0,,271.41224791000417,None,2000.0,273.43522717900487,None,None,273.43522717900487,None,1.6800000000000002,36.0,275.47949679800513,None,None,0.0,275.47949679800513,None,You did not win or lose anything!,10.0,3.0,28.0,0.31999999999999984,47.22222222222222,0.26045350005904977,[0],66.66666666666666,27.0,3.0,None,,0.2909985149963177,,,,3,Scanner,1,2019_Sep_07_1130,MID,3.1.5,60.175054770417404,,,,,,
SmallPun,2000.0,0.0,36.0,36.0,36.0,,277.5132378010021,None,2000.0,279.54713622900454,None,None,279.54713622900454,None,1.6800000000000002,37.0,281.57951099699864,None,1,1.0,281.57951099699864,None,You did not lose $0.20!,10.0,5.0,29.0,0.31999999999999984,48.64864864864865,0.2608129539447772,"[0, 1]",66.66666666666666,27.0,3.0,None,,0.2669236700021429,0.2669236700021429,,,3,Scanner,1,2019_Sep_07_1130,MID,3.1.5,60.175054770417404,,,,,,
LgPun,1500.0,0.0,37.0,37.0,37.0,,283.6132365240046,None,1500.0,285.63635751599935,None,None,285.63635751599935,None,1.6800000000000002,38.0,287.180260041001,None,1,1.0,287.180260041001,None,You did not lose $5.00!,10.0,4.0,30.0,0.33999999999999986,50.0,0.26130445157890025,[],49.99999999999999,30.0,3.0,None,,0.2701514089931152,0.2701514089931152,Adjusting RT...,,3,Scanner,1,2019_Sep_07_1130,MID,3.1.5,60.175054770417404,,,,,,
LgPun,3500.0,0.0,38.0,38.0,38.0,,289.21383523799886,None,3500.0,291.2379055909987,None,None,291.2379055909987,None,1.66,39.0,294.78125828700286,None,1,1.0,294.78125828700286,None,You did not lose $5.00!,10.0,4.0,31.0,0.33999999999999986,51.28205128205128,0.2622906305001379,[1],49.99999999999999,30.0,3.0,None,,0.28102803000365384,0.28102803000365384,,,3,Scanner,1,2019_Sep_07_1130,MID,3.1.5,60.175054770417404,,,,,,
